time,ax,ay,az,atotal
0.000,-0.03,0.28,0.02,0.28
0.010,-0.01,0.48,0.16,0.51
0.020,0.01,0.13,0.24,0.27
0.030,-0.04,-0.09,0.37,0.38
0.040,0.04,0.37,0.13,0.39
0.050,0.01,0.28,0.18,0.33
0.060,-0.01,0.57,0.19,0.60
0.070,-0.01,0.12,0.17,0.21
0.080,-0.02,-0.06,0.21,0.22
0.090,0.05,0.41,0.11,0.42
0.100,-0.03,0.24,0.16,0.29
0.110,0.02,0.63,0.19,0.66
0.120,-0.04,0.05,0.24,0.25
0.130,-0.00,-0.01,0.18,0.18
0.140,0.05,0.27,0.00,0.28
0.150,0.04,0.38,-0.00,0.39
0.160,0.04,0.48,0.20,0.52
0.170,-0.03,0.15,-0.04,0.16
0.180,-0.03,-0.00,-0.05,0.06
0.190,-0.00,0.21,-0.11,0.24
0.200,0.01,0.41,0.12,0.43
0.210,-0.01,0.39,0.18,0.43
0.220,-0.03,0.07,0.06,0.10
0.230,-0.06,0.00,-0.11,0.12
0.240,0.06,0.25,-0.01,0.26
0.250,-0.00,0.37,0.10,0.38
0.260,0.03,0.40,0.13,0.42
0.270,-0.02,0.17,0.22,0.28
0.280,-0.07,-0.01,-0.04,0.08
0.290,0.02,0.38,-0.08,0.39
0.299,0.03,0.28,0.25,0.38
0.310,0.02,0.45,0.23,0.51
0.320,-0.04,0.06,0.15,0.16
0.329,-0.03,0.10,-0.11,0.15
0.340,0.04,0.40,-0.05,0.41
0.349,-0.02,0.32,0.14,0.35
0.359,0.03,0.43,0.22,0.49
0.369,-0.05,-0.01,-0.02,0.06
0.380,0.00,0.16,-0.12,0.20
0.389,-0.03,0.43,-0.15,0.45
0.399,-0.01,0.21,-0.12,0.24
0.409,0.06,0.38,0.12,0.40
0.419,-0.04,0.02,-0.05,0.07
0.429,-0.01,0.22,-0.27,0.34
0.439,-0.01,0.40,-0.10,0.42
0.449,-0.04,0.26,0.01,0.26
0.459,0.04,0.29,0.20,0.36
0.469,-0.03,0.00,0.10,0.10
0.479,-0.00,0.25,-0.17,0.30
0.489,0.03,0.41,-0.09,0.42
0.499,-0.03,0.30,0.08,0.31
0.509,-0.00,0.32,0.08,0.33
0.519,-0.03,0.01,0.11,0.12
0.529,-0.02,0.29,-0.06,0.30
0.539,-0.06,0.47,-0.16,0.50
0.549,-0.18,0.60,0.07,0.63
0.559,0.07,-0.05,0.16,0.18
0.569,0.08,-0.25,0.07,0.27
0.579,-0.02,0.25,-0.25,0.35
0.589,-0.02,0.38,-0.33,0.50
0.599,-0.04,0.28,-0.19,0.34
0.609,-0.02,0.20,-0.18,0.27
0.619,-0.05,-0.27,-0.16,0.32
0.629,-0.01,0.28,-0.50,0.57
0.639,-0.03,0.17,-0.26,0.31
0.649,-0.04,0.44,-0.21,0.49
0.659,-0.06,0.05,-0.29,0.30
0.669,-0.05,-0.17,-0.17,0.24
0.679,-0.05,0.23,-0.27,0.36
0.689,-0.02,0.22,-0.35,0.41
0.699,-0.02,0.38,-0.11,0.40
0.709,-0.03,0.08,-0.28,0.29
0.720,-0.05,-0.18,-0.16,0.25
0.729,-0.00,0.30,-0.25,0.39
0.739,-0.02,0.16,-0.07,0.17
0.749,-0.04,0.46,-0.03,0.46
0.759,-0.06,-0.01,-0.11,0.13
0.769,-0.02,-0.12,-0.05,0.13
0.779,0.02,0.25,-0.18,0.31
0.789,0.03,0.17,-0.12,0.21
0.799,-0.02,0.45,-0.02,0.46
0.809,-0.05,0.04,-0.10,0.12
0.819,-0.03,-0.09,-0.20,0.22
0.829,0.02,0.24,-0.29,0.38
0.839,0.00,0.24,-0.10,0.26
0.849,-0.01,0.39,-0.11,0.40
0.859,-0.04,0.07,-0.15,0.17
0.869,-0.04,0.04,-0.26,0.27
0.879,-0.01,0.17,-0.25,0.30
0.889,-0.03,0.34,-0.16,0.37
0.899,-0.00,0.37,0.03,0.38
0.909,-0.06,0.13,-0.28,0.31
0.919,-0.04,0.00,-0.32,0.32
0.929,0.03,0.30,-0.44,0.53
0.939,-0.02,0.14,-0.21,0.25
0.949,0.03,0.40,-0.03,0.40
0.959,-0.05,0.01,-0.15,0.16
0.969,-0.08,0.11,-0.37,0.39
0.979,-0.01,0.36,-0.41,0.55
0.989,0.01,0.22,-0.14,0.26
0.998,0.01,0.39,-0.12,0.41
1.008,0.02,-0.01,0.10,0.10
1.019,0.15,0.54,0.35,0.66
1.029,-0.35,0.71,-0.38,0.88
1.039,0.13,-0.59,-0.29,0.67
1.048,0.01,0.13,-0.50,0.51
1.058,-0.07,-0.06,-0.52,0.53
1.068,-0.04,0.31,-0.43,0.53
1.078,-0.06,0.30,-0.42,0.52
1.088,-0.02,0.27,-0.21,0.34
1.098,0.03,0.24,-0.07,0.26
1.108,-0.05,-0.12,-0.17,0.21
1.118,-0.02,0.32,-0.46,0.56
1.128,-0.04,0.27,-0.40,0.48
1.138,-0.04,0.34,-0.24,0.42
1.148,0.01,0.16,-0.27,0.32
1.158,-0.03,-0.08,-0.18,0.20
1.168,-0.03,0.31,-0.37,0.48
1.178,-0.04,0.25,-0.47,0.53
1.189,-0.02,0.35,-0.21,0.41
1.198,-0.01,0.20,-0.13,0.23
1.208,-0.05,-0.15,-0.24,0.29
1.218,-0.01,0.33,-0.40,0.52
1.228,-0.02,0.28,-0.37,0.47
1.238,-0.06,0.38,-0.24,0.45
1.248,-0.01,0.14,-0.11,0.18
1.258,-0.05,-0.12,-0.26,0.29
1.268,-0.00,0.21,-0.36,0.42
1.278,-0.03,0.39,-0.28,0.48
1.288,-0.03,0.34,-0.20,0.39
1.298,-0.04,0.20,-0.26,0.33
1.308,-0.04,-0.10,-0.16,0.20
1.318,0.01,0.30,-0.44,0.54
1.328,-0.04,0.33,-0.25,0.42
1.338,-0.03,0.31,-0.25,0.40
1.348,-0.04,0.10,-0.19,0.22
1.358,-0.04,-0.13,-0.29,0.32
1.368,0.01,0.30,-0.38,0.48
1.378,-0.03,0.33,-0.36,0.49
1.388,-0.00,0.40,-0.04,0.40
1.398,-0.09,0.14,-0.34,0.37
1.408,-0.06,-0.25,-0.25,0.36
1.418,0.01,0.44,-0.26,0.51
1.428,-0.06,0.17,-0.37,0.41
1.438,0.02,0.35,-0.05,0.36
1.448,-0.06,0.18,-0.27,0.33
1.458,-0.05,-0.21,-0.41,0.46
1.468,0.03,0.41,-0.27,0.49
1.478,-0.00,0.19,-0.04,0.19
1.488,0.01,0.47,-0.12,0.49
1.498,-0.08,0.00,-0.15,0.17
1.508,-0.08,0.06,-0.28,0.30
1.518,0.02,0.29,-0.18,0.34
1.528,-0.01,0.17,-0.19,0.25
1.538,0.01,0.43,-0.05,0.44
1.548,-0.05,0.00,-0.15,0.16
1.558,-0.06,0.04,-0.34,0.35
1.568,0.01,0.27,-0.35,0.44
1.578,-0.00,0.22,-0.03,0.22
1.587,0.04,0.36,0.04,0.36
1.597,-0.10,-0.02,-0.26,0.28
1.607,-0.05,0.07,-0.33,0.34
1.617,-0.01,0.26,-0.24,0.35
1.627,-0.02,0.22,-0.15,0.26
1.638,0.03,0.28,0.04,0.29
1.647,-0.05,0.02,-0.12,0.13
1.658,-0.06,0.09,-0.31,0.33
1.667,-0.00,0.30,-0.26,0.40
1.677,-0.05,0.20,-0.03,0.21
1.687,0.04,0.26,0.12,0.29
1.697,-0.07,-0.08,-0.13,0.17
1.708,-0.05,0.23,-0.30,0.38
1.718,-0.02,0.31,-0.14,0.34
1.727,0.03,0.12,0.04,0.13
1.738,0.03,0.27,0.10,0.29
1.747,-0.06,-0.08,-0.07,0.12
1.757,-0.05,0.28,-0.29,0.40
1.767,-0.03,0.40,-0.19,0.44
1.777,-0.02,0.16,-0.02,0.16
1.787,0.01,0.17,0.03,0.17
1.797,0.01,-0.08,0.01,0.08
1.807,-0.04,0.25,-0.18,0.31
1.817,-0.00,0.31,-0.13,0.33
1.827,-0.03,0.22,0.04,0.22
1.837,-0.04,0.09,-0.01,0.09
1.847,-0.01,-0.03,-0.01,0.03
1.857,-0.00,0.32,-0.23,0.39
1.867,-0.03,0.34,-0.17,0.39
1.877,0.01,0.24,0.09,0.26
1.887,-0.02,0.09,-0.06,0.11
1.897,-0.00,-0.10,-0.03,0.10
1.907,-0.00,0.31,-0.09,0.32
1.917,-0.01,0.28,-0.07,0.29
1.927,-0.04,0.30,0.05,0.30
1.937,-0.01,0.06,0.01,0.06
1.947,-0.04,-0.13,-0.07,0.15
1.957,0.02,0.38,-0.04,0.38
1.967,-0.04,0.26,-0.08,0.28
1.977,0.03,0.22,0.13,0.26
1.987,-0.02,0.08,-0.13,0.16
1.997,-0.02,-0.11,-0.05,0.12
2.007,0.02,0.37,-0.17,0.41
2.017,-0.01,0.26,0.12,0.29
2.027,-0.02,0.30,0.06,0.31
2.037,-0.03,-0.00,-0.14,0.14
2.047,-0.03,-0.06,-0.02,0.07
2.057,0.02,0.39,-0.16,0.42
2.067,0.01,0.17,0.11,0.20
2.077,0.04,0.38,0.12,0.40
2.087,-0.07,-0.53,-0.31,0.61
2.097,-0.02,0.49,-0.02,0.49
2.107,0.02,0.31,-0.11,0.33
2.117,-0.04,0.23,0.08,0.24
2.127,0.00,0.27,0.10,0.29
2.137,-0.04,0.07,-0.19,0.21
2.147,-0.04,-0.03,-0.17,0.17
2.157,0.02,0.39,-0.11,0.41
2.167,0.01,0.18,0.23,0.29
2.177,0.03,0.28,0.16,0.32
2.187,-0.08,-0.05,-0.05,0.11
2.197,-0.02,0.15,-0.28,0.32
2.207,0.01,0.26,-0.06,0.27
2.216,-0.00,0.22,0.11,0.25
2.227,0.05,0.22,0.11,0.25
2.236,-0.05,-0.07,-0.01,0.08
2.246,-0.04,0.16,-0.26,0.31
2.257,0.02,0.27,-0.04,0.27
2.267,0.01,0.16,0.21,0.26
2.277,0.04,0.22,0.15,0.27
2.287,-0.08,-0.06,-0.00,0.10
2.296,-0.02,0.20,-0.25,0.32
2.307,-0.03,0.35,-0.22,0.41
2.316,-0.04,0.07,-0.02,0.08
2.326,0.05,0.24,0.29,0.38
2.336,-0.05,-0.15,-0.02,0.16
2.347,-0.01,0.24,-0.24,0.34
2.356,-0.02,0.30,-0.19,0.35
2.366,0.00,0.11,0.21,0.24
2.377,0.01,0.27,0.01,0.27
2.386,-0.03,-0.29,0.02,0.29
2.396,-0.00,0.49,-0.19,0.53
2.406,-0.02,0.12,-0.11,0.16
2.416,-0.01,0.23,0.10,0.25
2.426,0.04,0.11,0.21,0.24
2.436,-0.06,-0.15,-0.13,0.20
2.446,-0.03,0.31,-0.23,0.39
2.456,0.03,0.34,-0.08,0.35
2.466,-0.02,0.13,0.01,0.13
2.476,0.04,0.12,0.11,0.17
2.486,-0.05,-0.18,0.03,0.19
2.496,-0.03,0.36,-0.18,0.40
2.506,-0.02,0.34,-0.06,0.35
2.516,-0.02,0.09,0.14,0.17
2.526,0.01,0.19,0.06,0.20
2.536,-0.07,-0.27,-0.04,0.28
2.546,0.02,0.41,-0.15,0.44
2.556,-0.00,0.26,-0.08,0.27
2.566,0.00,0.28,0.08,0.29
2.576,-0.00,-0.02,-0.03,0.04
2.586,-0.03,-0.17,-0.13,0.22
2.596,0.04,0.38,-0.12,0.40
2.606,-0.00,0.20,0.12,0.24
2.616,-0.01,0.35,-0.01,0.35
2.626,-0.02,-0.07,0.01,0.08
2.636,-0.02,-0.06,-0.14,0.16
2.646,-0.01,0.32,-0.19,0.37
2.656,-0.02,0.28,0.13,0.31
2.666,0.01,0.36,-0.09,0.37
2.676,-0.01,-0.14,-0.12,0.19
2.686,-0.02,0.08,-0.12,0.15
2.696,0.01,0.21,-0.12,0.24
2.706,-0.01,0.16,0.09,0.19
2.716,0.00,0.35,0.09,0.36
2.726,-0.06,-0.12,-0.20,0.24
2.736,-0.04,0.04,-0.08,0.10
2.746,-0.00,0.33,-0.17,0.37
2.756,-0.03,0.14,-0.04,0.15
2.766,0.03,0.33,0.13,0.36
2.776,-0.04,0.05,-0.11,0.13
2.785,-0.04,-0.10,-0.30,0.32
2.796,0.01,0.38,-0.12,0.39
2.806,-0.02,0.02,0.09,0.09
2.816,0.05,0.28,0.11,0.30
2.826,-0.05,0.05,-0.14,0.16
2.836,-0.06,-0.00,-0.29,0.30
2.846,-0.01,0.29,-0.25,0.38
2.856,-0.00,0.15,0.01,0.15
2.865,0.01,0.28,0.08,0.29
2.876,-0.03,-0.08,-0.11,0.14
2.885,-0.06,0.11,-0.32,0.35
2.896,0.01,0.22,-0.29,0.36
2.905,0.01,0.12,0.13,0.17
2.915,-0.00,0.31,-0.03,0.31
2.925,-0.04,-0.11,-0.21,0.24
2.935,-0.08,0.19,-0.32,0.38
2.945,-0.01,0.30,-0.30,0.43
2.955,0.02,0.13,0.04,0.14
2.965,0.02,0.21,-0.06,0.22
2.976,-0.04,-0.08,-0.07,0.11
2.985,-0.02,0.16,-0.37,0.41
2.995,-0.03,0.21,-0.21,0.30
3.005,0.00,0.18,0.11,0.21
3.015,0.01,0.06,-0.13,0.15
3.025,-0.06,-0.11,-0.20,0.23
3.035,-0.02,0.28,-0.28,0.39
3.046,-0.05,0.25,-0.28,0.38
3.055,0.00,0.19,-0.05,0.20
3.065,0.01,0.05,-0.09,0.10
3.075,-0.04,-0.14,-0.06,0.15
3.085,-0.02,0.33,-0.38,0.51
3.095,-0.06,0.15,-0.19,0.25
3.105,-0.00,0.29,-0.09,0.30
3.115,-0.01,-0.03,-0.21,0.22
3.127,-0.04,-0.10,-0.23,0.25
3.135,0.01,0.39,-0.22,0.45
3.145,-0.12,0.72,-0.26,0.78
3.155,0.06,-0.42,-0.25,0.49
3.165,0.05,-0.01,-0.15,0.16
3.175,-0.06,-0.17,-0.24,0.30
3.186,0.01,0.27,-0.26,0.38
3.196,-0.01,0.17,-0.19,0.26
3.205,-0.02,0.23,-0.16,0.28
3.215,-0.02,0.07,-0.19,0.21
3.225,-0.05,-0.11,-0.34,0.37
3.235,0.02,0.28,-0.28,0.40
3.245,-0.02,0.21,-0.21,0.30
3.255,-0.03,0.21,-0.10,0.23
3.265,-0.06,-0.01,-0.17,0.18
3.275,-0.02,-0.14,-0.18,0.23
3.285,-0.03,0.24,-0.35,0.42
3.295,-0.02,0.20,-0.09,0.22
3.305,-0.01,0.26,-0.04,0.27
3.315,-0.07,-0.03,-0.31,0.32
3.325,-0.03,-0.09,-0.32,0.33
3.335,0.00,0.20,-0.40,0.44
3.345,-0.02,0.14,-0.10,0.17
3.355,0.04,0.35,-0.06,0.36
3.365,-0.04,-0.20,-0.31,0.37
3.375,-0.06,0.02,-0.41,0.41
3.385,0.01,0.20,-0.44,0.48
3.395,-0.03,0.06,-0.17,0.18
3.405,0.02,0.38,-0.00,0.38
3.415,-0.06,-0.14,-0.22,0.27
3.425,-0.04,0.01,-0.42,0.43
3.435,0.02,0.22,-0.30,0.37
3.445,-0.02,0.09,-0.08,0.12
3.455,0.01,0.26,-0.03,0.26
3.465,-0.02,-0.13,-0.22,0.25
3.475,-0.03,0.01,-0.36,0.36
3.484,-0.00,0.23,-0.32,0.39
3.495,-0.05,0.05,-0.14,0.16
3.504,0.03,0.19,-0.08,0.21
3.514,-0.04,-0.14,-0.23,0.27
3.524,-0.04,0.17,-0.50,0.53
3.534,0.01,0.18,-0.35,0.39
3.544,-0.03,0.09,-0.19,0.21
3.554,0.05,0.11,-0.01,0.12
3.564,-0.08,-0.11,-0.24,0.28
3.574,-0.03,0.11,-0.45,0.46
3.584,-0.16,0.37,-0.42,0.59
3.594,-0.29,0.39,-0.21,0.54
3.604,0.14,-0.15,-0.11,0.23
3.614,0.13,-0.33,-0.19,0.40
3.625,0.10,0.06,-0.48,0.50
3.634,-0.01,0.14,-0.40,0.43
3.644,-0.02,0.13,-0.14,0.19
3.654,0.01,0.04,-0.07,0.08
3.664,-0.05,-0.20,-0.17,0.27
3.674,0.00,0.13,-0.39,0.41
3.684,-0.04,0.16,-0.38,0.41
3.694,-0.01,0.15,-0.18,0.23
3.704,0.01,0.05,-0.15,0.16
3.714,-0.02,-0.19,-0.28,0.34
3.724,0.01,0.16,-0.48,0.50
3.734,-0.04,0.20,-0.36,0.42
3.744,-0.01,0.14,-0.13,0.20
3.754,0.00,0.06,-0.19,0.20
3.764,-0.03,-0.28,-0.25,0.37
3.774,0.01,0.22,-0.42,0.48
3.784,-0.03,0.18,-0.40,0.44
3.794,-0.01,0.22,-0.21,0.30
3.804,-0.02,0.03,-0.23,0.24
3.814,-0.06,-0.37,-0.30,0.48
3.824,0.01,0.24,-0.37,0.44
3.834,-0.02,0.10,-0.28,0.30
3.844,-0.03,0.33,-0.16,0.37
3.854,-0.04,-0.06,-0.26,0.27
3.864,-0.01,-0.27,-0.30,0.40
3.874,0.01,0.16,-0.36,0.40
3.884,-0.02,0.11,-0.24,0.26
3.894,0.01,0.37,-0.13,0.39
3.904,-0.04,-0.08,-0.23,0.25
3.914,-0.03,-0.24,-0.36,0.43
3.924,0.01,0.17,-0.40,0.43
3.934,-0.03,0.10,-0.21,0.23
3.944,-0.01,0.32,-0.09,0.33
3.954,-0.03,-0.11,-0.19,0.22
3.964,-0.03,-0.21,-0.42,0.47
3.974,0.02,0.06,-0.38,0.39
3.984,-0.02,0.08,-0.20,0.22
3.994,0.00,0.36,-0.13,0.38
4.004,-0.00,-0.14,-0.24,0.28
4.014,-0.06,-0.18,-0.39,0.44
4.024,0.03,0.10,-0.40,0.42
4.034,-0.01,0.05,-0.27,0.28
4.044,0.03,0.24,-0.13,0.27
4.054,-0.04,-0.13,-0.18,0.22
4.064,-0.05,-0.10,-0.36,0.37
4.074,-0.00,0.02,-0.48,0.48
4.084,0.02,0.09,-0.15,0.18
4.094,0.02,0.29,-0.12,0.31
4.104,-0.04,-0.22,-0.29,0.37
4.114,0.00,0.03,-0.41,0.41
4.124,-0.00,0.02,-0.32,0.32
4.133,0.02,0.10,-0.11,0.15
4.144,0.05,0.08,-0.08,0.12
4.154,-0.03,-0.15,-0.15,0.22
4.163,-0.03,-0.02,-0.45,0.45
4.174,-0.04,0.09,-0.61,0.62
4.184,-0.10,0.06,-1.03,1.03
4.194,0.17,0.15,0.56,0.61
4.203,-0.03,0.01,0.06,0.07
4.213,-0.01,-0.17,-0.38,0.41
4.223,0.00,0.11,-0.37,0.38
4.233,0.00,-0.10,-0.36,0.37
4.243,0.02,0.12,0.03,0.12
4.253,-0.02,-0.16,-0.04,0.17
4.263,0.01,0.04,-0.51,0.51
4.274,0.03,0.11,-0.53,0.55
4.283,-0.04,-0.02,0.06,0.07
4.293,0.01,0.09,0.11,0.14
4.303,-0.04,-0.34,-0.19,0.39
4.313,0.02,0.08,-0.35,0.36
4.323,-0.01,0.09,-0.28,0.30
4.333,0.00,0.06,-0.10,0.12
4.343,0.02,-0.03,-0.11,0.12
4.353,-0.02,-0.33,-0.26,0.42
4.363,0.00,0.14,-0.34,0.36
4.373,-0.02,0.10,-0.24,0.26
4.383,0.03,0.05,-0.11,0.13
4.393,0.01,-0.12,-0.18,0.22
4.403,-0.02,-0.34,-0.25,0.42
4.413,0.02,0.17,-0.32,0.37
4.423,-0.02,0.05,-0.24,0.25
4.433,0.02,0.18,-0.12,0.22
4.443,-0.01,-0.21,-0.17,0.26
4.453,0.00,-0.33,-0.28,0.43
4.463,0.01,0.09,-0.38,0.39
4.473,0.02,-0.07,-0.13,0.15
4.483,-0.01,0.30,-0.15,0.33
4.493,-0.02,-0.23,-0.30,0.38
4.503,-0.02,-0.29,-0.38,0.48
4.513,0.02,0.07,-0.39,0.40
4.523,-0.02,-0.02,-0.16,0.16
4.533,0.03,0.15,-0.06,0.16
4.543,-0.02,-0.25,-0.22,0.33
4.553,-0.03,-0.34,-0.36,0.50
4.563,0.01,0.13,-0.37,0.40
4.573,0.02,0.03,-0.08,0.09
4.583,0.02,0.15,-0.16,0.22
4.593,-0.01,-0.22,-0.22,0.31
4.603,-0.02,-0.24,-0.27,0.36
4.613,0.06,-0.03,-0.27,0.27
4.623,0.02,-0.07,0.03,0.08
4.633,0.03,0.15,0.01,0.15
4.643,-0.01,-0.23,-0.27,0.35
4.653,-0.03,-0.16,-0.32,0.35
4.663,0.05,0.10,-0.27,0.29
4.673,-0.01,-0.10,-0.12,0.15
4.683,0.03,0.15,-0.05,0.16
4.693,-0.03,-0.30,-0.12,0.32
4.703,-0.03,-0.20,-0.26,0.33
4.713,0.01,-0.03,-0.32,0.32
4.723,0.02,-0.07,-0.14,0.16
4.733,0.04,0.13,-0.13,0.19
4.743,-0.05,-0.27,-0.19,0.33
4.753,-0.01,-0.06,-0.43,0.43
4.763,-0.02,-0.07,-0.38,0.39
4.773,-0.00,-0.06,-0.21,0.21
4.782,0.04,-0.02,-0.03,0.05
4.793,-0.05,-0.26,-0.23,0.35
4.802,0.02,-0.18,-0.43,0.46
4.813,0.03,0.03,-0.34,0.34
4.823,0.00,-0.02,-0.20,0.20
4.832,0.06,-0.05,-0.04,0.08
4.842,-0.04,-0.24,-0.25,0.35
4.853,0.00,-0.15,-0.47,0.49
4.862,-0.01,0.07,-0.26,0.27
4.872,-0.00,-0.04,-0.14,0.15
4.882,0.05,-0.08,-0.07,0.12
4.892,-0.02,-0.37,-0.20,0.42
4.902,0.03,-0.05,-0.42,0.42
4.912,-0.01,0.00,-0.28,0.28
4.922,-0.01,0.03,-0.19,0.20
4.932,0.03,-0.16,-0.17,0.23
4.942,-0.01,-0.34,-0.33,0.47
4.952,0.03,0.01,-0.44,0.44
4.962,-0.02,0.03,-0.33,0.33
4.972,0.01,0.06,-0.05,0.08
4.982,-0.02,-0.26,-0.19,0.32
4.992,0.01,-0.42,-0.25,0.49
5.002,0.03,0.02,-0.39,0.39
5.012,-0.03,0.00,-0.23,0.23
5.022,0.04,0.08,-0.15,0.17
5.032,0.01,-0.29,-0.19,0.35
5.042,-0.01,-0.32,-0.29,0.43
5.052,0.03,0.09,-0.31,0.32
5.062,-0.02,-0.04,-0.28,0.29
5.072,0.03,0.12,-0.11,0.17
5.082,-0.02,-0.25,-0.15,0.30
5.092,0.01,-0.51,-0.25,0.57
5.102,0.05,0.06,-0.30,0.31
5.112,0.01,-0.06,-0.21,0.21
5.122,0.00,0.10,-0.06,0.12
5.132,-0.01,-0.24,-0.25,0.35
5.142,-0.04,-0.44,-0.42,0.61
5.152,0.03,0.11,-0.41,0.43
5.162,-0.02,-0.09,-0.31,0.32
5.172,0.00,0.06,-0.14,0.15
5.182,0.02,-0.24,-0.18,0.30
5.192,-0.01,-0.42,-0.35,0.55
5.202,0.04,-0.09,-0.29,0.30
5.212,-0.01,-0.02,-0.15,0.15
5.222,0.04,0.04,-0.08,0.10
5.232,-0.04,-0.29,-0.33,0.44
5.242,-0.00,-0.31,-0.40,0.51
5.252,-0.01,-0.05,-0.38,0.39
5.262,0.02,-0.06,-0.21,0.22
5.272,-0.00,0.04,-0.05,0.06
5.282,-0.04,-0.34,-0.26,0.43
5.292,0.00,-0.31,-0.37,0.48
5.302,0.04,-0.03,-0.45,0.45
5.312,0.01,-0.16,-0.24,0.29
5.322,0.05,0.03,-0.03,0.07
5.332,-0.03,-0.32,-0.34,0.47
5.342,-0.04,-0.31,-0.47,0.56
5.352,0.01,-0.04,-0.28,0.28
5.362,-0.00,-0.14,-0.19,0.24
5.372,0.04,-0.08,-0.10,0.13
5.382,-0.02,-0.42,-0.20,0.46
5.391,0.02,-0.17,-0.41,0.45
5.401,0.02,-0.12,-0.46,0.48
5.411,0.00,-0.11,-0.11,0.16
5.421,0.06,-0.03,0.02,0.07
5.431,-0.05,-0.50,-0.19,0.54
5.442,-0.01,-0.12,-0.40,0.42
5.451,-0.01,-0.03,-0.35,0.35
5.462,0.04,-0.13,-0.09,0.16
5.472,0.03,-0.15,-0.10,0.18
5.481,0.00,-0.54,-0.26,0.61
5.492,0.02,-0.05,-0.31,0.32
5.501,-0.00,-0.07,-0.29,0.29
5.512,0.00,-0.10,-0.18,0.21
5.521,0.05,-0.18,-0.15,0.24
5.531,-0.02,-0.45,-0.30,0.54
5.541,0.02,-0.06,-0.40,0.41
5.551,0.01,-0.03,-0.24,0.25
5.561,0.01,-0.12,-0.13,0.18
5.571,0.02,-0.29,-0.26,0.38
5.581,0.00,-0.46,-0.26,0.53
5.591,0.02,-0.12,-0.36,0.38
5.601,-0.00,-0.00,-0.35,0.35
5.611,0.01,-0.04,-0.13,0.13
5.621,-0.01,-0.31,-0.18,0.36
5.631,-0.02,-0.48,-0.24,0.54
5.641,0.03,-0.15,-0.23,0.28
5.651,0.02,-0.11,-0.26,0.29
5.661,0.02,-0.13,-0.18,0.22
5.671,-0.00,-0.24,-0.22,0.32
5.681,-0.02,-0.49,-0.31,0.58
5.691,0.03,-0.14,-0.32,0.35
5.701,-0.01,-0.08,-0.22,0.23
5.711,-0.02,-0.05,-0.14,0.15
5.721,-0.04,-0.33,-0.26,0.43
5.731,-0.03,-0.52,-0.40,0.65
5.741,0.03,-0.10,-0.48,0.50
5.751,0.01,-0.15,-0.28,0.32
5.761,0.03,0.03,-0.14,0.15
5.771,-0.04,-0.32,-0.33,0.46
5.781,-0.02,-0.44,-0.49,0.66
5.791,0.02,-0.19,-0.44,0.48
5.801,0.01,-0.18,-0.23,0.29
5.811,0.02,-0.04,-0.18,0.18
5.821,-0.05,-0.32,-0.33,0.46
5.831,-0.01,-0.40,-0.38,0.55
5.841,-0.01,-0.20,-0.46,0.50
5.851,-0.01,-0.15,-0.32,0.35
5.861,-0.00,-0.06,-0.19,0.20
5.871,-0.02,-0.36,-0.32,0.48
5.881,-0.03,-0.36,-0.51,0.63
5.891,0.04,-0.29,-0.46,0.55
5.901,-0.01,-0.18,-0.26,0.31
5.911,0.03,-0.03,-0.17,0.17
5.921,-0.07,-0.38,-0.47,0.61
5.931,-0.03,-0.32,-0.47,0.57
5.941,0.01,-0.18,-0.45,0.49
5.951,-0.04,-0.32,-0.27,0.42
5.961,0.06,-0.11,-0.07,0.15
5.971,-0.05,-0.48,-0.33,0.59
5.981,-0.03,-0.32,-0.50,0.60
5.991,-0.02,-0.14,-0.45,0.47
6.001,-0.01,-0.37,-0.24,0.44
6.011,0.05,-0.06,-0.09,0.12
6.021,-0.05,-0.51,-0.35,0.62
6.031,-0.01,-0.31,-0.43,0.53
6.041,-0.02,-0.20,-0.40,0.44
6.051,0.01,-0.36,-0.21,0.42
6.061,0.03,-0.23,-0.16,0.28
6.070,-0.04,-0.57,-0.29,0.63
6.080,0.01,-0.20,-0.47,0.51
6.091,-0.00,-0.22,-0.46,0.51
6.100,0.00,-0.24,-0.14,0.27
6.111,0.02,-0.32,-0.18,0.37
6.121,-0.01,-0.58,-0.35,0.67
6.131,0.01,-0.19,-0.43,0.47
6.141,0.00,-0.24,-0.39,0.45
6.150,-0.02,-0.20,-0.13,0.24
6.161,-0.00,-0.43,-0.16,0.46
6.170,-0.01,-0.65,-0.28,0.71
6.180,0.01,-0.21,-0.35,0.40
6.190,-0.01,-0.23,-0.20,0.30
6.200,-0.01,-0.24,-0.09,0.26
6.210,0.02,-0.45,-0.15,0.48
6.220,-0.00,-0.60,-0.27,0.66
6.230,-0.01,-0.19,-0.39,0.44
6.240,0.01,-0.19,-0.25,0.31
6.250,0.02,-0.23,-0.11,0.26
6.260,0.03,-0.51,-0.16,0.54
6.270,-0.02,-0.59,-0.14,0.60
6.280,0.03,-0.34,-0.29,0.45
6.290,-0.01,-0.20,-0.25,0.32
6.300,-0.00,-0.15,-0.02,0.15
6.310,0.01,-0.50,-0.28,0.57
6.320,0.11,-0.60,-0.98,1.16
6.330,0.07,-0.34,-0.64,0.73
6.340,0.04,-0.14,0.20,0.25
6.350,-0.10,-0.21,0.51,0.56
6.360,-0.07,-0.72,-0.13,0.73
6.370,-0.00,-0.74,-0.22,0.77
6.380,0.06,-0.36,-0.25,0.44
6.390,-0.01,-0.33,-0.07,0.34
6.400,0.04,-0.16,0.03,0.16
6.410,0.00,-0.60,-0.05,0.60
6.420,-0.02,-0.68,-0.16,0.69
6.430,0.04,-0.35,-0.23,0.42
6.440,0.00,-0.43,0.01,0.43
6.450,0.06,-0.31,0.09,0.33
6.460,-0.02,-0.64,-0.14,0.65
6.470,-0.00,-0.60,-0.22,0.64
6.480,0.04,-0.39,-0.07,0.40
6.490,0.02,-0.55,-0.06,0.55
6.500,0.06,-0.35,0.07,0.37
6.510,-0.01,-0.70,0.00,0.70
6.520,0.01,-0.67,-0.02,0.68
6.530,0.05,-0.47,0.02,0.47
6.540,0.03,-0.55,0.16,0.57
6.550,0.02,-0.43,0.18,0.47
6.560,-0.02,-0.62,-0.03,0.62
6.570,0.01,-0.49,-0.25,0.55
6.580,-0.00,-0.43,-0.17,0.46
6.590,0.05,-0.51,0.18,0.54
6.600,0.03,-0.52,0.18,0.56
6.610,0.00,-0.71,0.12,0.72
6.620,-0.03,-0.60,-0.06,0.60
6.630,0.04,-0.45,-0.12,0.47
6.639,0.03,-0.47,0.14,0.49
6.650,0.09,-0.54,0.15,0.57
6.660,0.03,-0.71,0.00,0.71
6.670,0.03,-0.50,-0.13,0.52
6.679,0.04,-0.47,-0.26,0.54
6.690,-0.02,-0.47,0.00,0.47
6.699,0.06,-0.47,0.18,0.51
6.710,-0.02,-0.84,-0.07,0.84
6.719,0.08,-0.48,-0.20,0.53
6.729,-0.00,-0.46,-0.18,0.50
6.739,0.04,-0.42,0.00,0.43
6.749,0.04,-0.55,-0.01,0.56
6.759,-0.03,-0.84,-0.11,0.85
6.769,0.02,-0.41,-0.14,0.43
6.780,0.03,-0.39,-0.04,0.39
6.790,-0.01,-0.41,-0.02,0.41
6.799,0.04,-0.55,0.01,0.55
6.809,-0.01,-0.84,-0.09,0.84
6.819,0.08,-0.42,-0.08,0.43
6.829,0.04,-0.40,-0.18,0.44
6.839,0.02,-0.56,-0.06,0.56
6.849,0.03,-0.55,-0.08,0.56
6.859,-0.01,-0.84,-0.29,0.89
6.869,0.04,-0.45,-0.29,0.54
6.879,-0.02,-0.31,-0.11,0.33
6.889,-0.00,-0.46,-0.17,0.49
6.899,0.01,-0.66,-0.16,0.68
6.909,-0.00,-0.76,-0.21,0.79
6.919,0.02,-0.51,-0.39,0.64
6.929,0.02,-0.47,-0.22,0.52
6.939,-0.01,-0.45,-0.13,0.47
6.949,0.01,-0.69,-0.19,0.71
6.959,-0.03,-0.87,-0.26,0.90
6.969,0.04,-0.60,-0.21,0.64
6.979,-0.00,-0.50,-0.20,0.54
6.989,0.02,-0.55,-0.11,0.56
6.999,0.00,-0.64,-0.14,0.65
7.009,0.00,-0.89,-0.30,0.94
7.019,0.02,-0.64,-0.42,0.76
7.029,0.01,-0.51,-0.18,0.54
7.039,-0.00,-0.51,-0.11,0.52
7.049,-0.05,-0.68,-0.30,0.74
7.059,-0.03,-0.90,-0.46,1.01
7.069,-0.01,-0.58,-0.38,0.70
7.079,-0.02,-0.57,-0.13,0.58
7.089,-0.01,-0.52,-0.19,0.56
7.099,-0.04,-0.75,-0.30,0.81
7.109,-0.03,-0.78,-0.47,0.91
7.119,0.02,-0.57,-0.42,0.71
7.129,0.04,-0.60,-0.13,0.62
7.139,0.08,-0.51,-0.04,0.52
7.149,0.01,-0.91,-0.21,0.93
7.159,0.03,-0.67,-0.37,0.76
7.169,0.13,-0.58,-0.90,1.08
7.179,-0.03,-0.50,-0.13,0.52
7.189,-0.14,-0.41,0.40,0.59
7.199,-0.04,-0.98,0.00,0.98
7.209,0.05,-0.78,-0.15,0.79
7.219,0.07,-0.61,-0.26,0.67
7.229,0.01,-0.66,-0.13,0.67
7.239,0.01,-0.56,0.05,0.56
7.249,-0.07,-0.91,-0.20,0.93
7.259,0.00,-0.73,-0.01,0.73
7.269,0.02,-0.59,0.03,0.59
7.280,0.05,-0.74,-0.08,0.75
7.289,0.10,-0.66,-0.00,0.67
7.298,0.03,-0.84,-0.10,0.84
7.309,0.02,-0.70,-0.30,0.77
7.319,-0.01,-0.61,-0.31,0.69
7.329,-0.02,-0.70,-0.09,0.71
7.338,0.02,-0.76,-0.13,0.77
7.349,0.01,-1.01,-0.20,1.03
7.359,0.03,-0.72,-0.28,0.77
7.368,0.01,-0.59,-0.34,0.68
7.378,-0.02,-0.65,-0.18,0.68
7.389,0.03,-0.72,-0.07,0.72
7.399,0.01,-1.07,-0.30,1.11
7.408,0.05,-0.69,-0.30,0.75
7.419,0.03,-0.58,-0.15,0.60
7.429,-0.01,-0.61,-0.18,0.64
7.438,0.01,-0.84,-0.22,0.87
7.448,0.03,-1.08,-0.32,1.13
7.458,0.11,-0.72,-0.27,0.78
7.468,0.02,-0.64,-0.12,0.66
7.478,0.04,-0.59,0.08,0.60
7.488,-0.00,-0.84,-0.11,0.84
7.498,-0.04,-1.10,-0.35,1.16
7.508,0.02,-0.67,-0.42,0.80
7.518,0.01,-0.78,-0.14,0.79
7.528,0.03,-0.54,-0.02,0.54
7.538,0.03,-0.98,-0.12,0.99
7.548,0.04,-1.11,-0.17,1.12
7.558,0.11,-0.84,-0.06,0.85
7.568,0.04,-0.80,-0.05,0.80
7.578,0.06,-0.66,0.12,0.67
7.588,-0.01,-0.94,0.05,0.95
7.598,0.00,-0.98,-0.10,0.98
7.608,0.07,-0.75,-0.12,0.76
7.618,0.06,-0.75,0.26,0.80
7.628,0.09,-0.65,0.32,0.73
7.638,-0.01,-0.93,0.07,0.93
7.648,-0.00,-0.98,-0.09,0.98
7.658,0.09,-0.86,-0.04,0.86
7.668,0.05,-0.77,0.09,0.78
7.678,0.07,-0.78,0.19,0.81
7.688,0.07,-1.07,-0.06,1.07
7.698,0.10,-0.94,-0.20,0.97
7.708,0.05,-0.84,-0.23,0.87
7.718,-0.01,-0.80,-0.17,0.82
7.728,0.03,-0.79,0.01,0.79
7.738,-0.04,-1.05,-0.25,1.08
7.748,0.03,-1.05,-0.28,1.09
7.758,0.05,-0.83,-0.18,0.85
7.768,0.08,-0.99,-0.16,1.00
7.778,0.11,-0.94,0.01,0.95
7.788,0.04,-1.05,0.02,1.05
7.798,0.05,-1.05,-0.21,1.07
7.808,0.00,-0.87,0.00,0.87
7.818,0.04,-0.84,0.24,0.87
7.828,0.03,-0.98,0.18,1.00
7.838,0.00,-1.10,0.10,1.10
7.848,0.04,-0.96,-0.01,0.96
7.858,0.05,-0.80,-0.06,0.80
7.868,0.06,-0.93,-0.00,0.93
7.878,0.10,-0.99,0.01,1.00
7.888,0.03,-1.18,-0.15,1.19
7.898,0.10,-0.95,-0.19,0.98
7.908,0.03,-0.76,-0.32,0.82
7.918,0.02,-0.93,-0.10,0.94
7.928,0.04,-0.91,-0.09,0.92
7.938,-0.01,-1.32,-0.37,1.37
7.948,0.05,-0.91,-0.34,0.97
7.958,0.01,-0.84,-0.27,0.88
7.968,0.04,-0.77,-0.22,0.80
7.978,0.03,-1.05,-0.21,1.07
7.987,0.04,-1.21,-0.23,1.23
7.997,0.07,-0.94,-0.40,1.02
8.007,0.03,-0.89,-0.24,0.92
8.017,0.07,-0.73,0.05,0.74
8.027,-0.01,-1.09,-0.16,1.10
8.037,0.02,-1.23,-0.24,1.25
8.048,0.06,-0.93,-0.34,0.99
8.057,0.06,-0.87,-0.17,0.89
8.067,0.07,-0.72,-0.09,0.73
8.077,0.02,-1.02,-0.31,1.06
8.087,0.04,-1.23,-0.28,1.26
8.097,0.09,-0.96,-0.21,0.98
8.107,0.06,-0.95,-0.18,0.97
8.117,0.02,-0.78,-0.10,0.79
8.127,0.04,-1.05,-0.17,1.07
8.137,0.04,-1.10,-0.34,1.15
8.147,0.08,-0.97,-0.29,1.02
8.157,0.03,-0.91,-0.05,0.91
8.167,0.05,-0.81,-0.05,0.81
8.177,0.01,-1.09,-0.23,1.12
8.187,0.03,-1.06,-0.17,1.07
8.197,0.06,-1.02,-0.30,1.06
8.207,0.08,-0.97,-0.10,0.98
8.217,0.07,-0.84,-0.04,0.84
8.227,0.04,-1.14,-0.21,1.16
8.237,0.03,-1.02,-0.26,1.05
8.247,0.04,-1.05,-0.19,1.07
8.257,0.04,-1.00,-0.01,1.00
8.267,0.05,-0.92,-0.02,0.92
8.277,0.02,-1.12,-0.11,1.13
8.287,0.04,-1.00,-0.13,1.01
8.297,0.05,-0.97,-0.21,0.99
8.307,0.07,-0.99,-0.05,0.99
8.317,0.07,-0.92,0.06,0.92
8.327,-0.02,-1.15,-0.13,1.16
8.337,0.04,-0.99,-0.31,1.04
8.347,0.06,-0.96,-0.19,0.98
8.357,0.03,-1.01,0.06,1.01
8.367,0.05,-0.99,-0.06,1.00
8.377,-0.00,-1.25,-0.27,1.27
8.387,-0.00,-0.87,-0.29,0.92
8.397,-0.52,0.03,-0.20,0.55
8.407,0.35,-1.58,-0.32,1.65
8.417,0.30,-1.37,-0.25,1.43
8.427,-0.25,-0.99,-0.14,1.03
8.437,-0.10,-0.69,-0.40,0.81
8.447,0.43,-1.52,-0.42,1.63
8.457,0.10,-1.02,-0.08,1.03
8.467,0.05,-1.08,-0.18,1.10
8.477,0.03,-1.36,-0.32,1.40
8.487,0.03,-1.03,-0.34,1.08
8.497,0.02,-0.93,-0.14,0.94
8.507,0.03,-0.95,-0.08,0.95
8.517,0.03,-1.09,-0.16,1.11
8.527,0.01,-1.32,-0.19,1.34
8.537,0.08,-0.97,-0.22,1.00
8.547,0.06,-0.91,-0.14,0.93
8.557,0.08,-0.91,0.05,0.92
8.567,0.04,-1.22,-0.07,1.22
8.576,0.06,-1.38,-0.09,1.39
8.587,0.05,-1.06,-0.16,1.08
8.597,0.03,-1.05,0.06,1.05
8.607,0.07,-0.87,0.13,0.89
8.616,0.03,-1.29,-0.01,1.29
8.627,0.05,-1.27,-0.08,1.28
8.636,0.11,-1.08,-0.06,1.08
8.647,0.04,-0.99,-0.09,1.00
8.656,0.10,-0.88,0.05,0.89
8.667,0.03,-1.23,-0.06,1.23
8.677,0.03,-1.38,-0.06,1.38
8.686,0.08,-1.14,-0.17,1.16
8.696,0.07,-1.18,0.07,1.18
8.706,0.01,-0.93,0.18,0.95
8.716,0.01,-1.30,-0.07,1.30
8.726,0.03,-1.30,-0.20,1.32
8.736,0.08,-1.13,-0.13,1.14
8.746,0.05,-1.13,0.10,1.14
8.756,0.09,-1.00,0.15,1.02
8.766,0.04,-1.31,-0.10,1.32
8.776,0.03,-1.25,-0.21,1.26
8.786,0.08,-1.16,-0.28,1.20
8.796,0.06,-1.12,0.03,1.12
8.806,0.10,-1.02,0.13,1.03
8.816,0.04,-1.37,-0.18,1.38
8.826,0.02,-1.22,-0.09,1.22
8.836,0.10,-1.11,0.03,1.12
8.846,0.07,-1.18,-0.04,1.18
8.856,0.12,-0.95,0.05,0.96
8.866,0.04,-1.27,-0.04,1.27
8.876,0.04,-1.18,-0.31,1.22
8.886,0.06,-1.06,-0.26,1.09
8.896,0.03,-1.17,-0.09,1.18
8.906,0.09,-1.07,0.00,1.08
8.916,0.02,-1.36,-0.05,1.36
8.926,0.06,-1.13,-0.36,1.19
8.936,0.05,-1.10,-0.34,1.15
8.946,0.09,-1.03,0.04,1.03
8.956,0.07,-1.18,-0.15,1.19
8.966,0.06,-1.40,-0.15,1.41
8.976,0.00,-1.07,-0.28,1.10
8.986,0.03,-1.08,-0.31,1.12
8.996,0.05,-1.04,-0.28,1.08
9.006,0.11,-1.19,-0.11,1.20
9.016,0.04,-1.35,-0.26,1.37
9.026,0.09,-1.16,-0.35,1.22
9.036,0.07,-1.00,-0.29,1.04
9.046,0.06,-1.11,-0.11,1.12
9.056,0.06,-1.17,-0.11,1.18
9.066,0.03,-1.43,-0.18,1.44
9.076,0.09,-1.13,-0.18,1.14
9.086,0.04,-1.09,-0.05,1.09
9.096,0.07,-1.01,-0.07,1.02
9.106,0.03,-1.23,-0.08,1.23
9.116,0.00,-1.44,-0.18,1.46
9.126,0.11,-1.02,-0.23,1.05
9.136,0.03,-1.04,-0.37,1.10
9.146,0.08,-1.00,-0.21,1.03
9.156,0.04,-1.18,-0.23,1.20
9.166,0.08,-1.45,-0.20,1.47
9.176,0.07,-1.13,-0.31,1.18
9.186,0.05,-1.20,-0.21,1.22
9.196,0.06,-0.94,-0.02,0.94
9.206,0.00,-1.30,-0.13,1.30
9.216,0.04,-1.39,-0.39,1.44
9.226,0.11,-1.16,-0.31,1.20
9.236,0.09,-1.13,-0.18,1.15
9.246,0.08,-1.01,-0.08,1.02
9.256,0.07,-1.33,-0.20,1.35
9.266,0.04,-1.33,-0.29,1.36
9.276,0.04,-1.13,-0.20,1.15
9.285,0.04,-1.12,-0.12,1.13
9.295,0.07,-0.99,-0.01,0.99
9.305,0.03,-1.31,-0.15,1.32
9.316,0.05,-1.40,-0.28,1.43
9.325,0.10,-1.11,-0.26,1.14
9.335,0.09,-1.24,-0.00,1.25
9.345,0.10,-0.96,-0.06,0.96
9.355,0.03,-1.32,-0.17,1.33
9.365,0.01,-1.27,-0.25,1.29
9.375,0.08,-1.18,-0.20,1.20
9.385,0.07,-1.20,-0.19,1.22
9.395,0.06,-1.12,-0.04,1.12
9.405,0.04,-1.33,-0.02,1.33
9.415,0.04,-1.24,-0.29,1.28
9.425,0.05,-1.24,-0.28,1.28
9.435,0.06,-1.12,0.00,1.12
9.445,0.07,-1.09,0.04,1.09
9.455,0.04,-1.40,-0.09,1.40
9.465,0.03,-1.28,-0.33,1.32
9.475,0.04,-1.13,-0.28,1.17
9.485,0.05,-1.20,-0.04,1.20
9.495,0.06,-1.14,-0.05,1.14
9.505,0.04,-1.43,-0.14,1.43
9.515,0.07,-1.25,-0.22,1.27
9.525,0.06,-1.13,-0.30,1.17
9.535,0.06,-1.13,0.01,1.13
9.545,0.07,-1.19,0.02,1.19
9.555,-0.02,-1.44,-0.22,1.46
9.565,0.06,-1.27,-0.22,1.29
9.575,0.01,-1.13,-0.10,1.14
9.585,0.03,-1.23,-0.10,1.24
9.595,0.06,-1.32,-0.04,1.32
9.605,0.03,-1.47,-0.06,1.47
9.615,0.09,-1.22,-0.22,1.24
9.625,0.06,-1.11,-0.18,1.13
9.635,0.05,-1.16,-0.08,1.16
9.645,0.09,-1.30,-0.03,1.30
9.655,0.05,-1.49,-0.17,1.50
9.665,0.06,-1.16,-0.40,1.23
9.675,-0.01,-1.04,-0.27,1.07
9.685,0.04,-1.13,-0.10,1.13
9.695,0.05,-1.33,-0.19,1.34
9.705,0.05,-1.56,-0.22,1.58
9.715,0.11,-1.21,-0.23,1.24
9.725,0.06,-1.18,-0.24,1.21
9.735,0.08,-1.11,0.04,1.11
9.745,0.07,-1.32,0.01,1.32
9.755,0.00,-1.63,-0.12,1.63
9.765,0.09,-1.10,-0.21,1.12
9.775,0.04,-1.24,-0.11,1.25
9.785,0.06,-1.07,0.14,1.08
9.795,0.06,-1.43,0.02,1.43
9.805,0.06,-1.64,-0.20,1.65
9.815,0.12,-1.17,-0.24,1.20
9.825,0.06,-1.29,0.09,1.30
9.835,0.04,-0.98,0.09,0.99
9.845,0.02,-1.46,-0.12,1.47
9.855,0.03,-1.50,-0.22,1.52
9.865,0.05,-1.22,-0.36,1.27
9.875,0.06,-1.20,-0.12,1.21
9.885,0.10,-1.12,0.11,1.13
9.894,0.05,-1.49,-0.14,1.49
9.904,0.06,-1.52,-0.25,1.54
9.915,0.08,-1.28,-0.28,1.31
9.925,0.04,-1.27,-0.15,1.28
9.934,0.10,-1.16,0.05,1.16
9.945,0.04,-1.42,-0.20,1.44
9.954,0.04,-1.52,-0.43,1.58
9.964,0.08,-1.21,-0.27,1.24
9.974,0.07,-1.38,-0.09,1.38
9.984,0.08,-1.21,-0.07,1.22
9.994,0.03,-1.49,-0.07,1.49
10.004,0.00,-1.40,-0.36,1.45
10.014,0.07,-1.32,-0.34,1.36
10.024,0.05,-1.37,-0.02,1.37
10.034,0.10,-1.30,0.03,1.31
10.044,0.04,-1.52,-0.06,1.52
10.054,0.03,-1.43,-0.35,1.47
10.064,0.06,-1.34,-0.39,1.39
10.074,0.04,-1.38,0.02,1.38
10.084,0.09,-1.31,0.05,1.32
10.094,-0.00,-1.65,-0.04,1.65
10.104,0.05,-1.33,-0.29,1.36
10.114,0.05,-1.34,-0.25,1.36
10.124,0.06,-1.31,-0.05,1.31
10.134,0.15,-1.32,0.09,1.34
10.144,0.04,-1.71,-0.18,1.72
10.154,0.09,-1.40,-0.21,1.42
10.164,0.09,-1.38,-0.05,1.38
10.174,0.06,-1.43,0.03,1.43
10.184,0.07,-1.49,0.11,1.50
10.194,-0.03,-1.65,-0.08,1.65
10.204,0.08,-1.45,-0.10,1.46
10.214,0.05,-1.42,-0.21,1.44
10.224,0.08,-1.46,-0.09,1.47
10.234,0.15,-1.55,0.09,1.56
10.244,0.04,-1.74,-0.20,1.75
10.254,0.14,-1.42,-0.11,1.43
10.264,0.08,-1.38,-0.00,1.38
10.274,0.06,-1.40,0.19,1.41
10.284,0.08,-1.62,0.30,1.65
10.294,0.04,-1.78,0.20,1.80
10.304,0.10,-1.47,0.05,1.48
10.314,0.05,-1.38,0.11,1.38
10.324,0.10,-1.37,0.22,1.39
10.334,0.09,-1.63,-0.06,1.64
10.344,0.08,-1.76,-0.12,1.76
10.354,0.04,-1.52,-0.18,1.54
10.364,-0.32,-1.73,-0.03,1.76
10.374,0.40,-1.17,-0.02,1.24
10.384,0.08,-1.95,0.01,1.95
10.394,-0.06,-1.86,-0.13,1.86
10.404,0.24,-1.58,-0.29,1.62
10.414,0.08,-1.47,-0.13,1.48
10.424,0.06,-1.45,-0.17,1.46
10.434,0.06,-1.72,-0.33,1.75
10.444,0.05,-1.80,-0.27,1.82
10.454,0.12,-1.56,-0.38,1.62
10.464,0.04,-1.59,-0.01,1.59
10.473,0.08,-1.37,0.10,1.38
10.484,0.01,-1.71,-0.00,1.71
10.494,0.04,-1.72,0.04,1.72
10.504,0.07,-1.48,-0.09,1.49
10.513,0.06,-1.56,-0.03,1.56
10.524,0.15,-1.35,0.16,1.37
10.534,0.06,-1.76,0.10,1.76
10.543,0.08,-1.80,-0.05,1.80
10.554,0.11,-1.64,-0.15,1.65
10.564,0.10,-1.64,0.09,1.64
10.574,0.14,-1.35,0.22,1.38
10.584,0.06,-1.68,-0.09,1.68
10.594,0.04,-1.69,-0.31,1.72
10.604,0.03,-1.53,-0.32,1.56
10.613,0.05,-1.52,-0.12,1.52
10.623,0.10,-1.53,-0.10,1.53
10.633,0.07,-1.77,-0.17,1.78
10.644,0.05,-1.68,-0.43,1.74
10.653,0.05,-1.65,-0.23,1.67
10.663,0.08,-1.60,-0.01,1.60
10.673,0.07,-1.62,-0.06,1.62
10.684,0.08,-1.79,0.15,1.79
10.693,0.05,-1.49,-0.15,1.49
10.703,0.09,-1.63,-0.17,1.64
10.713,0.11,-1.53,0.25,1.55
10.723,0.12,-1.56,0.03,1.57
10.733,0.04,-1.91,-0.08,1.91
10.744,0.10,-1.48,-0.04,1.48
10.753,0.04,-1.59,-0.12,1.59
10.763,0.05,-1.58,-0.04,1.58
10.773,0.12,-1.58,-0.13,1.59
10.783,0.08,-1.82,-0.10,1.82
10.793,0.12,-1.46,-0.18,1.48
10.803,0.03,-1.60,-0.18,1.61
10.813,0.10,-1.62,-0.09,1.62
10.823,0.07,-1.69,-0.07,1.69
10.833,0.03,-1.81,-0.20,1.82
10.843,0.09,-1.53,-0.27,1.55
10.853,0.06,-1.51,-0.33,1.54
10.863,0.15,-1.46,0.00,1.47
10.873,0.08,-1.68,-0.12,1.68
10.883,0.06,-1.84,-0.22,1.86
10.893,0.07,-1.37,-0.23,1.39
10.903,0.01,-1.47,-0.19,1.48
10.913,0.06,-1.36,-0.06,1.36
10.923,0.13,-1.64,-0.13,1.65
10.933,0.11,-1.83,-0.20,1.85
10.943,0.11,-1.45,-0.24,1.47
10.953,0.07,-1.49,-0.13,1.50
10.963,0.10,-1.37,-0.02,1.37
10.973,0.08,-1.58,-0.21,1.60
10.983,0.07,-1.77,-0.20,1.79
10.993,-0.40,-1.37,1.04,1.76
11.003,0.14,-0.54,0.43,0.70
11.013,0.53,-2.54,-1.01,2.79
11.023,0.11,-1.50,-0.88,1.74
11.033,0.08,-1.54,-0.30,1.57
11.043,0.09,-1.46,-0.33,1.50
11.053,0.21,-2.02,-0.12,2.03
11.063,0.11,-1.27,0.07,1.28
11.073,0.10,-1.68,-0.03,1.68
11.083,0.13,-1.70,0.01,1.70
11.093,0.09,-1.49,-0.10,1.49
11.103,0.14,-1.55,0.19,1.57
11.113,0.16,-1.34,0.07,1.35
11.123,0.12,-1.65,-0.02,1.65
11.133,0.18,-1.53,-0.01,1.54
11.143,0.15,-1.58,-0.16,1.59
11.153,0.17,-1.60,0.11,1.62
11.163,0.18,-1.59,0.20,1.61
11.172,0.10,-1.67,-0.11,1.68
11.182,0.11,-1.54,-0.15,1.55
11.192,0.12,-1.50,-0.26,1.53
11.202,0.13,-1.58,0.03,1.59
11.213,0.19,-1.46,0.11,1.48
11.222,0.11,-1.73,-0.00,1.73
11.233,0.12,-1.55,-0.12,1.56
11.242,0.12,-1.50,-0.08,1.51
11.252,0.12,-1.62,0.25,1.64
11.262,0.16,-1.53,0.15,1.54
11.272,0.10,-1.79,0.07,1.79
11.282,0.15,-1.48,-0.04,1.49
11.292,0.09,-1.46,-0.08,1.46
11.302,0.12,-1.50,0.25,1.53
11.312,0.10,-1.63,0.18,1.64
11.322,0.08,-1.76,-0.02,1.76
11.332,0.14,-1.45,-0.12,1.46
11.342,0.12,-1.44,-0.09,1.45
11.352,0.10,-1.53,0.08,1.53
11.362,0.15,-1.61,0.00,1.62
11.372,0.08,-1.75,-0.10,1.75
11.382,0.09,-1.45,-0.18,1.46
11.392,0.08,-1.41,-0.10,1.42
11.402,0.10,-1.58,0.24,1.60
11.412,0.16,-1.64,0.03,1.65
11.422,0.12,-1.91,0.18,1.92
11.432,0.12,-1.45,-0.08,1.45
11.442,0.08,-1.49,-0.13,1.50
11.452,0.05,-1.36,-0.00,1.36
11.462,0.04,-1.66,0.04,1.66
11.472,0.06,-1.75,-0.19,1.76
11.482,0.12,-1.49,-0.06,1.49
11.492,0.06,-1.43,0.04,1.43
11.502,0.11,-1.36,0.13,1.37
11.512,0.07,-1.73,-0.17,1.74
11.522,0.08,-1.85,-0.09,1.85
11.532,0.15,-1.44,-0.09,1.45
11.542,0.10,-1.63,-0.08,1.64
11.552,0.15,-1.43,0.05,1.44
11.562,0.09,-1.84,-0.04,1.84
11.572,0.09,-1.82,-0.19,1.83
11.582,0.09,-1.60,-0.33,1.63
11.592,0.11,-1.52,-0.18,1.54
11.602,0.11,-1.36,0.24,1.38
11.612,0.09,-1.78,0.05,1.79
11.622,0.05,-1.81,-0.30,1.83
11.632,0.14,-1.60,-0.17,1.62
11.642,0.11,-1.41,0.09,1.42
11.652,0.13,-1.53,0.15,1.54
11.662,0.09,-1.68,0.14,1.69
11.672,0.11,-1.82,0.17,1.83
11.682,0.15,-1.49,-0.00,1.50
11.692,0.15,-1.51,0.20,1.53
11.702,0.19,-1.24,0.39,1.31
11.712,0.11,-1.77,0.17,1.78
11.722,0.12,-1.68,-0.07,1.68
11.732,0.14,-1.49,-0.01,1.50
11.742,0.14,-1.51,0.18,1.52
11.752,0.19,-1.38,0.32,1.43
11.762,0.13,-1.69,0.07,1.69
11.772,0.11,-1.50,-0.17,1.52
11.782,0.10,-1.39,-0.18,1.41
11.792,0.12,-1.45,0.03,1.45
11.802,0.16,-1.32,-0.06,1.33
11.812,0.08,-1.66,-0.11,1.66
11.821,0.13,-1.49,-0.19,1.51
11.832,0.08,-1.47,-0.31,1.50
11.842,0.14,-1.55,-0.08,1.56
11.852,0.16,-1.50,-0.00,1.51
11.861,0.13,-1.80,-0.04,1.81
11.871,0.15,-1.58,-0.22,1.60
11.881,0.09,-1.44,-0.36,1.49
11.891,0.09,-1.42,-0.07,1.42
11.901,0.15,-1.46,0.03,1.47
11.911,0.05,-1.77,-0.20,1.78
11.921,0.04,-1.49,-0.34,1.52
11.931,0.05,-1.41,-0.31,1.45
11.941,0.06,-1.46,-0.05,1.46
11.951,0.13,-1.59,-0.01,1.59
11.961,0.13,-1.75,-0.17,1.77
11.971,0.14,-1.56,-0.27,1.58
11.981,0.11,-1.42,-0.14,1.43
11.991,0.12,-1.36,-0.09,1.37
12.001,0.12,-1.60,-0.10,1.61
12.011,0.09,-1.75,-0.17,1.76
12.021,0.10,-1.51,-0.30,1.54
12.031,0.10,-1.39,-0.28,1.42
12.041,0.16,-1.41,-0.10,1.43
12.051,0.12,-1.60,-0.24,1.62
12.061,0.13,-1.79,-0.21,1.81
12.071,0.12,-1.48,-0.38,1.53
12.081,0.10,-1.44,-0.22,1.46
12.091,0.09,-1.33,-0.02,1.33
12.101,0.07,-1.57,-0.09,1.57
12.111,0.07,-1.77,-0.27,1.79
12.121,0.11,-1.47,-0.46,1.55
12.131,0.11,-1.38,-0.29,1.41
12.141,0.19,-1.35,0.02,1.36
12.151,0.11,-1.63,-0.18,1.64
12.161,0.11,-1.79,-0.29,1.82
12.171,0.13,-1.53,-0.23,1.55
12.181,0.08,-1.46,-0.02,1.46
12.191,0.10,-1.24,0.09,1.25
12.201,0.04,-1.61,-0.18,1.62
12.211,0.08,-1.69,-0.20,1.70
12.221,0.10,-1.43,-0.16,1.44
12.231,0.06,-1.54,-0.07,1.55
12.241,0.15,-1.29,0.09,1.30
12.251,0.03,-1.69,-0.18,1.70
12.261,0.05,-1.66,-0.38,1.70
12.271,0.07,-1.37,-0.32,1.41
12.281,0.07,-1.59,-0.14,1.60
12.291,0.15,-1.38,0.04,1.39
12.301,0.03,-1.78,-0.24,1.79
12.311,0.06,-1.68,-0.25,1.70
12.321,0.09,-1.49,-0.18,1.50
12.331,0.06,-1.58,-0.23,1.60
12.341,0.11,-1.40,-0.10,1.41
12.351,0.07,-1.68,-0.23,1.69
12.361,0.09,-1.59,-0.40,1.64
12.371,0.09,-1.46,-0.41,1.51
12.381,0.08,-1.54,-0.15,1.55
12.391,0.10,-1.51,0.04,1.52
12.401,0.07,-1.69,-0.08,1.69
12.411,0.05,-1.59,-0.25,1.61
12.421,0.07,-1.48,-0.16,1.49
12.431,0.09,-1.49,-0.00,1.49
12.440,0.12,-1.48,-0.05,1.48
12.451,0.10,-1.70,0.03,1.71
12.461,0.07,-1.52,-0.19,1.53
12.471,0.09,-1.50,-0.32,1.53
12.481,0.11,-1.50,-0.08,1.51
12.491,0.16,-1.49,-0.16,1.50
12.501,0.10,-1.78,-0.38,1.83
12.510,0.12,-1.43,-0.44,1.50
12.520,0.10,-1.42,-0.38,1.47
12.530,0.13,-1.45,-0.10,1.46
12.540,0.11,-1.62,-0.08,1.63
12.551,0.05,-1.80,-0.25,1.82
12.560,0.12,-1.48,-0.44,1.55
12.570,0.14,-1.41,-0.31,1.45
12.580,0.12,-1.52,-0.19,1.53
12.590,0.16,-1.65,-0.11,1.66
12.600,0.09,-1.83,-0.23,1.85
12.610,0.11,-1.56,-0.40,1.62
12.620,0.06,-1.38,-0.16,1.39
12.630,0.13,-1.50,0.05,1.51
12.640,0.16,-1.64,-0.13,1.65
12.650,0.17,-1.83,-0.22,1.85
12.660,0.15,-1.46,-0.33,1.51
12.670,0.15,-1.38,-0.31,1.42
12.680,0.12,-1.38,-0.09,1.39
12.690,0.11,-1.55,-0.18,1.56
12.700,0.09,-1.84,-0.32,1.87
12.710,0.17,-1.46,-0.38,1.52
12.720,0.14,-1.40,-0.14,1.41
12.730,0.19,-1.40,0.07,1.42
12.740,0.11,-1.57,-0.15,1.58
12.750,0.10,-1.85,-0.17,1.86
12.760,0.13,-1.40,-0.29,1.43
12.770,0.11,-1.48,-0.09,1.49
12.780,0.15,-1.32,-0.08,1.34
12.790,0.10,-1.65,-0.25,1.67
12.800,0.10,-1.76,-0.22,1.78
12.810,0.14,-1.50,-0.27,1.53
12.820,0.15,-1.55,-0.09,1.56
12.830,0.11,-1.37,0.03,1.37
12.840,0.06,-1.68,-0.19,1.69
12.850,0.08,-1.75,-0.24,1.76
12.860,0.15,-1.53,-0.38,1.58
12.870,0.13,-1.44,-0.12,1.45
12.880,0.16,-1.31,0.14,1.33
12.890,0.09,-1.62,-0.18,1.63
12.900,0.12,-1.69,-0.19,1.71
12.910,0.18,-1.50,-0.17,1.52
12.920,0.11,-1.55,-0.06,1.56
12.930,0.17,-1.36,0.03,1.37
12.940,0.10,-1.66,-0.13,1.67
12.950,0.11,-1.65,-0.31,1.68
12.960,0.16,-1.51,-0.18,1.53
12.970,0.08,-1.54,-0.27,1.56
12.980,0.15,-1.44,-0.01,1.45
12.990,0.06,-1.60,-0.08,1.60
13.000,0.07,-1.67,-0.15,1.68
13.010,0.11,-1.60,-0.24,1.62
13.020,0.16,-1.61,0.05,1.62
13.030,0.15,-1.45,-0.04,1.45
13.040,0.12,-1.73,-0.05,1.73
13.049,0.13,-1.55,-0.24,1.57
13.060,0.15,-1.46,-0.27,1.49
13.070,0.12,-1.57,-0.08,1.57
13.080,0.14,-1.54,0.07,1.55
13.090,0.07,-1.83,-0.01,1.84
13.100,0.11,-1.59,-0.14,1.60
13.109,0.12,-1.48,-0.16,1.50
13.119,0.12,-1.49,0.04,1.50
13.130,0.19,-1.47,0.01,1.48
13.139,0.14,-1.75,-0.26,1.77
13.150,0.13,-1.46,-0.26,1.49
13.159,0.10,-1.36,-0.22,1.38
13.169,0.09,-1.45,-0.05,1.45
13.179,0.11,-1.57,-0.13,1.57
13.190,0.08,-1.80,-0.16,1.81
13.200,0.12,-1.40,-0.22,1.42
13.209,0.15,-1.41,-0.02,1.42
13.219,0.17,-1.50,0.00,1.51
13.229,0.12,-1.62,-0.01,1.62
13.239,0.10,-1.76,-0.11,1.77
13.249,0.11,-1.42,-0.23,1.44
13.259,0.09,-1.36,-0.06,1.36
13.269,0.11,-1.40,0.08,1.41
13.279,0.11,-1.64,-0.12,1.65
13.289,0.10,-1.75,-0.16,1.76
13.299,0.13,-1.38,-0.31,1.42
13.309,0.07,-1.42,-0.24,1.45
13.319,0.11,-1.33,-0.11,1.34
13.329,0.12,-1.70,-0.13,1.71
13.339,0.12,-1.74,-0.20,1.76
13.349,0.11,-1.52,-0.21,1.54
13.359,0.09,-1.41,-0.24,1.43
13.369,0.10,-1.23,-0.05,1.24
13.379,0.05,-1.62,-0.16,1.63
13.389,0.08,-1.65,-0.37,1.69
13.399,0.16,-1.61,-0.24,1.63
13.409,0.15,-1.39,-0.01,1.40
13.419,0.16,-1.41,0.04,1.42
13.429,0.08,-1.62,-0.21,1.64
13.439,0.08,-1.59,-0.28,1.62
13.449,0.10,-1.42,-0.29,1.46
13.459,0.09,-1.37,0.02,1.37
13.469,0.14,-1.24,0.15,1.26
13.479,0.07,-1.61,-0.23,1.63
13.489,0.08,-1.62,-0.28,1.64
13.499,0.16,-1.37,-0.23,1.40
13.509,0.13,-1.43,-0.21,1.46
13.519,0.17,-1.32,-0.05,1.34
13.529,0.12,-1.59,-0.23,1.61
13.539,0.10,-1.50,-0.51,1.58
13.549,0.10,-1.38,-0.42,1.45
13.559,0.10,-1.35,-0.35,1.39
13.569,0.14,-1.43,-0.20,1.45
13.579,0.10,-1.59,-0.28,1.62
13.589,0.09,-1.48,-0.52,1.58
13.599,0.12,-1.36,-0.54,1.47
13.609,0.14,-1.26,-0.24,1.29
13.619,0.17,-1.33,-0.17,1.35
13.629,0.11,-1.48,-0.32,1.52
13.639,0.11,-1.46,-0.45,1.53
13.649,0.12,-1.34,-0.39,1.40
13.659,0.14,-1.28,-0.04,1.29
13.669,0.14,-1.35,-0.04,1.35
13.679,0.08,-1.57,-0.25,1.59
13.689,0.14,-1.38,-0.41,1.44
13.699,0.12,-1.24,-0.38,1.30
13.709,0.15,-1.28,-0.24,1.31
13.719,0.16,-1.36,-0.38,1.43
13.728,0.10,-1.57,-0.48,1.64
13.739,0.13,-1.34,-0.57,1.46
13.749,0.11,-1.27,-0.48,1.36
13.758,0.08,-1.24,-0.31,1.28
13.768,0.13,-1.39,-0.31,1.43
13.779,0.11,-1.62,-0.50,1.70
13.789,0.16,-1.36,-0.52,1.46
13.798,0.13,-1.23,-0.34,1.28
13.808,0.15,-1.19,-0.28,1.23
13.818,0.16,-1.47,-0.29,1.50
13.829,0.10,-1.59,-0.33,1.62
13.838,0.13,-1.28,-0.42,1.35
13.849,0.09,-1.16,-0.40,1.23
13.858,0.15,-1.19,-0.13,1.20
13.868,0.15,-1.50,-0.25,1.52
13.878,0.13,-1.70,-0.28,1.73
13.888,0.20,-1.35,-0.32,1.40
13.898,0.12,-1.32,-0.45,1.40
13.908,0.14,-1.14,-0.19,1.16
13.918,0.09,-1.41,-0.35,1.46
13.928,0.09,-1.72,-0.50,1.80
13.938,0.16,-1.34,-0.55,1.46
13.948,0.14,-1.37,-0.51,1.46
13.958,0.16,-1.13,-0.43,1.22
13.968,0.11,-1.42,-0.50,1.51
13.978,0.09,-1.65,-0.51,1.73
13.988,0.12,-1.44,-0.59,1.56
13.998,0.13,-1.36,-0.28,1.39
14.008,0.14,-1.19,-0.08,1.20
14.018,0.11,-1.49,-0.42,1.55
14.028,0.13,-1.50,-0.33,1.54
14.038,0.16,-1.40,-0.37,1.46
14.048,0.15,-1.29,-0.24,1.32
14.058,0.14,-1.14,-0.01,1.15
14.068,0.08,-1.44,-0.28,1.47
14.078,0.10,-1.43,-0.41,1.49
14.088,0.12,-1.34,-0.42,1.41
14.098,0.09,-1.30,-0.32,1.34
14.108,0.17,-1.19,-0.25,1.23
14.118,0.11,-1.56,-0.48,1.64
14.128,0.13,-1.44,-0.55,1.55
14.138,0.14,-1.37,-0.66,1.53
14.148,0.12,-1.36,-0.54,1.47
14.158,0.17,-1.12,-0.44,1.22
14.168,0.07,-1.49,-0.64,1.62
14.178,0.12,-1.36,-0.70,1.53
14.188,0.14,-1.30,-0.55,1.42
14.198,0.12,-1.39,-0.37,1.45
14.208,0.14,-1.29,-0.36,1.35
14.218,0.11,-1.59,-0.44,1.66
14.228,0.12,-1.34,-0.53,1.45
14.238,0.12,-1.27,-0.54,1.38
14.248,0.12,-1.26,-0.39,1.32
14.258,0.16,-1.31,-0.27,1.35
14.268,0.11,-1.56,-0.50,1.64
14.278,0.11,-1.36,-0.52,1.46
14.288,0.11,-1.17,-0.47,1.27
14.298,0.11,-1.34,-0.31,1.38
14.308,0.16,-1.34,-0.40,1.41
14.318,0.13,-1.54,-0.56,1.64
14.328,0.17,-1.29,-0.74,1.49
14.338,0.11,-1.13,-0.55,1.26
14.348,0.14,-1.28,-0.41,1.35
14.358,0.16,-1.45,-0.42,1.52
14.367,0.08,-1.66,-0.49,1.73
14.378,0.13,-1.25,-0.53,1.37
14.387,0.09,-1.17,-0.50,1.28
14.398,0.13,-1.19,-0.37,1.25
14.408,0.15,-1.43,-0.45,1.51
14.418,0.13,-1.56,-0.52,1.65
14.428,0.14,-1.31,-0.59,1.45
14.438,0.14,-1.23,-0.46,1.32
14.448,0.12,-1.21,-0.33,1.26
14.457,0.12,-1.46,-0.50,1.55
14.468,0.11,-1.65,-0.62,1.77
14.478,0.18,-1.35,-0.48,1.45
14.488,0.12,-1.17,-0.43,1.25
14.498,0.13,-1.28,-0.32,1.33
14.507,0.10,-1.45,-0.39,1.50
14.517,0.08,-1.65,-0.51,1.73
14.527,0.14,-1.29,-0.57,1.42
14.537,0.13,-1.28,-0.35,1.33
14.547,0.17,-1.16,-0.29,1.21
14.557,0.13,-1.53,-0.41,1.59
14.567,0.11,-1.62,-0.48,1.69
14.577,0.15,-1.41,-0.52,1.51
14.587,0.14,-1.32,-0.27,1.36
14.597,0.15,-1.23,-0.19,1.26
14.607,0.12,-1.53,-0.47,1.60
14.617,0.12,-1.57,-0.50,1.66
14.627,0.16,-1.36,-0.57,1.49
14.637,0.16,-1.32,-0.46,1.40
14.647,0.19,-1.17,-0.20,1.21
14.657,0.10,-1.50,-0.47,1.58
14.667,0.13,-1.63,-0.67,1.77
14.677,0.17,-1.40,-0.55,1.51
14.687,0.14,-1.35,-0.36,1.41
14.697,0.16,-1.36,-0.24,1.39
14.707,0.11,-1.53,-0.43,1.59
14.717,0.11,-1.61,-0.70,1.76
14.727,0.15,-1.31,-0.46,1.40
14.737,0.12,-1.36,-0.37,1.42
14.747,0.16,-1.36,-0.27,1.40
14.757,0.09,-1.56,-0.43,1.62
14.767,0.14,-1.50,-0.58,1.61
14.777,0.13,-1.37,-0.51,1.47
14.787,0.14,-1.44,-0.41,1.51
14.797,0.19,-1.39,-0.33,1.44
14.807,0.15,-1.56,-0.46,1.63
14.817,0.15,-1.46,-0.64,1.60
14.827,0.14,-1.28,-0.65,1.44
14.837,0.15,-1.38,-0.43,1.46
14.847,0.16,-1.38,-0.43,1.46
14.857,0.10,-1.64,-0.46,1.71
14.867,0.12,-1.39,-0.70,1.56
14.877,0.12,-1.36,-0.60,1.49
14.887,0.13,-1.39,-0.50,1.48
14.897,0.18,-1.48,-0.48,1.57
14.907,0.12,-1.67,-0.55,1.76
14.917,0.15,-1.44,-0.71,1.61
14.927,0.18,-1.29,-0.64,1.45
14.937,0.14,-1.35,-0.52,1.46
14.947,0.17,-1.51,-0.46,1.59
14.957,0.11,-1.68,-0.59,1.78
14.967,0.14,-1.43,-0.62,1.56
14.977,0.15,-1.30,-0.51,1.41
14.987,0.10,-1.46,-0.52,1.55
14.997,0.16,-1.51,-0.52,1.61
15.007,0.16,-1.70,-0.57,1.80
15.017,0.15,-1.51,-0.77,1.70
15.027,0.16,-1.33,-0.58,1.46
15.037,0.14,-1.38,-0.44,1.46
15.047,0.11,-1.56,-0.66,1.70
15.056,0.11,-1.75,-0.64,1.87
15.067,0.13,-1.42,-0.73,1.60
15.077,0.13,-1.39,-0.57,1.51
15.086,0.15,-1.34,-0.40,1.41
15.096,0.13,-1.61,-0.66,1.74
15.106,0.14,-1.77,-0.68,1.90
15.117,0.18,-1.48,-0.79,1.68
15.126,0.15,-1.41,-0.64,1.56
15.136,0.17,-1.32,-0.37,1.38
15.146,0.12,-1.70,-0.71,1.85
15.157,0.12,-1.82,-0.64,1.94
15.166,0.17,-1.47,-0.53,1.57
15.176,0.13,-1.53,-0.44,1.60
15.186,0.14,-1.42,-0.32,1.46
15.196,0.10,-1.69,-0.52,1.77
15.206,0.11,-1.76,-0.74,1.91
15.216,0.17,-1.54,-0.65,1.68
15.226,0.10,-1.52,-0.59,1.64
15.236,0.18,-1.46,-0.45,1.53
15.246,0.10,-1.75,-0.58,1.84
15.256,0.10,-1.78,-0.71,1.92
15.266,0.16,-1.61,-0.66,1.75
15.276,0.12,-1.56,-0.52,1.65
15.286,0.17,-1.47,-0.45,1.55
15.296,0.10,-1.69,-0.70,1.84
15.306,0.14,-1.69,-0.81,1.88
15.316,0.16,-1.59,-0.80,1.79
15.326,0.12,-1.61,-0.58,1.71
15.336,0.18,-1.49,-0.49,1.58
15.346,0.08,-1.75,-0.64,1.86
15.356,0.12,-1.63,-0.80,1.82
15.366,0.16,-1.63,-0.73,1.79
15.376,0.12,-1.59,-0.57,1.69
15.386,0.19,-1.57,-0.41,1.63
15.396,0.12,-1.77,-0.63,1.88
15.406,0.13,-1.64,-0.74,1.80
15.416,0.14,-1.55,-0.65,1.68
15.426,0.14,-1.53,-0.50,1.62
15.436,0.17,-1.59,-0.42,1.65
15.446,0.13,-1.79,-0.51,1.86
15.456,0.13,-1.68,-0.72,1.83
15.466,0.14,-1.52,-0.77,1.71
15.476,0.16,-1.58,-0.43,1.65
15.486,0.21,-1.60,-0.36,1.65
15.496,0.15,-1.83,-0.59,1.92
15.506,0.16,-1.59,-0.64,1.72
15.516,0.13,-1.42,-0.58,1.53
15.526,0.12,-1.50,-0.47,1.57
15.536,0.16,-1.57,-0.39,1.63
15.546,0.16,-1.87,-0.50,1.94
15.556,0.18,-1.56,-0.68,1.71
15.566,0.15,-1.47,-0.59,1.59
15.576,0.15,-1.43,-0.55,1.54
15.586,0.18,-1.66,-0.52,1.74
15.596,0.11,-1.78,-0.59,1.88
15.606,0.17,-1.63,-0.65,1.77
15.616,0.18,-1.42,-0.49,1.51
15.626,0.13,-1.43,-0.46,1.50
15.636,0.16,-1.60,-0.54,1.70
15.646,0.11,-1.81,-0.57,1.90
15.656,0.18,-1.57,-0.70,1.73
15.666,0.14,-1.50,-0.54,1.61
15.676,0.18,-1.40,-0.36,1.46
15.686,0.14,-1.69,-0.42,1.75
15.695,0.13,-1.83,-0.58,1.92
15.706,0.19,-1.58,-0.68,1.73
15.716,0.15,-1.44,-0.45,1.51
15.725,0.16,-1.35,-0.31,1.39
15.736,0.12,-1.64,-0.41,1.69
15.745,0.13,-1.82,-0.53,1.90
15.755,0.16,-1.61,-0.59,1.72
15.765,0.15,-1.44,-0.39,1.50
15.775,0.17,-1.32,-0.34,1.38
15.785,0.12,-1.72,-0.58,1.82
15.795,0.13,-1.73,-0.61,1.84
15.805,0.15,-1.65,-0.60,1.76
15.815,0.16,-1.54,-0.37,1.59
15.825,0.19,-1.39,-0.30,1.43
15.835,0.09,-1.68,-0.47,1.74
15.845,0.14,-1.65,-0.54,1.75
15.855,0.18,-1.55,-0.59,1.67
15.865,0.14,-1.48,-0.49,1.56
15.875,0.17,-1.27,-0.22,1.30
15.885,0.11,-1.66,-0.38,1.70
15.895,0.11,-1.67,-0.52,1.75
15.905,0.15,-1.55,-0.51,1.64
15.915,0.13,-1.54,-0.41,1.60
15.925,0.20,-1.37,-0.25,1.40
15.935,0.15,-1.70,-0.40,1.75
15.945,0.16,-1.62,-0.56,1.72
15.955,0.19,-1.44,-0.47,1.52
15.965,0.16,-1.48,-0.33,1.52
15.975,0.16,-1.41,-0.29,1.45
15.985,0.13,-1.62,-0.31,1.65
15.995,0.13,-1.52,-0.53,1.62
16.005,0.14,-1.41,-0.61,1.54
16.015,0.13,-1.46,-0.33,1.51
16.025,0.22,-1.43,-0.33,1.48
16.035,0.16,-1.67,-0.34,1.72
16.045,0.15,-1.45,-0.52,1.54
16.055,0.12,-1.46,-0.62,1.60
16.065,0.16,-1.38,-0.38,1.44
16.075,0.18,-1.46,-0.29,1.50
16.085,0.13,-1.65,-0.37,1.70
16.095,0.16,-1.54,-0.44,1.61
16.105,0.16,-1.40,-0.39,1.46
16.115,0.14,-1.42,-0.32,1.46
16.125,0.18,-1.46,-0.39,1.52
16.135,0.12,-1.66,-0.42,1.71
16.145,0.18,-1.45,-0.50,1.54
16.155,0.13,-1.40,-0.44,1.48
16.165,0.15,-1.32,-0.23,1.35
16.175,0.14,-1.44,-0.42,1.50
16.185,0.14,-1.72,-0.39,1.77
16.195,0.17,-1.35,-0.50,1.45
16.205,0.15,-1.38,-0.30,1.42
16.215,0.19,-1.19,-0.21,1.22
16.225,0.17,-1.49,-0.35,1.54
16.236,0.17,-1.66,-0.40,1.71
16.245,0.19,-1.33,-0.36,1.39
16.255,0.11,-1.33,-0.36,1.38
16.265,0.17,-1.16,-0.17,1.18
16.275,0.16,-1.44,-0.32,1.48
16.285,0.13,-1.61,-0.47,1.68
16.295,0.23,-1.39,-0.41,1.46
16.305,0.20,-1.34,-0.21,1.37
16.315,0.21,-1.23,-0.19,1.26
16.325,0.12,-1.45,-0.40,1.51
16.335,0.12,-1.57,-0.39,1.62
16.345,0.16,-1.37,-0.39,1.44
16.355,0.16,-1.33,-0.18,1.36
16.365,0.17,-1.25,-0.14,1.27
16.374,0.16,-1.43,-0.24,1.45
16.385,0.12,-1.52,-0.38,1.57
16.394,0.17,-1.43,-0.38,1.49
16.404,0.15,-1.37,-0.18,1.39
16.414,0.21,-1.36,-0.06,1.38
16.424,0.14,-1.55,-0.12,1.56
16.435,0.15,-1.55,-0.29,1.59
16.444,0.13,-1.45,-0.48,1.53
16.455,0.14,-1.37,-0.23,1.40
16.464,0.18,-1.26,-0.11,1.28
16.474,0.12,-1.48,-0.29,1.51
16.484,0.17,-1.44,-0.37,1.50
16.494,0.16,-1.35,-0.36,1.41
16.504,0.18,-1.40,-0.26,1.44
16.514,0.22,-1.27,-0.16,1.30
16.524,0.11,-1.53,-0.32,1.57
16.534,0.13,-1.38,-0.41,1.45
16.544,0.15,-1.28,-0.32,1.32
16.554,0.15,-1.28,-0.19,1.31
16.564,0.20,-1.32,-0.22,1.35
16.574,0.11,-1.53,-0.38,1.58
16.584,0.17,-1.28,-0.44,1.37
16.594,0.17,-1.27,-0.33,1.32
16.604,0.18,-1.24,-0.26,1.28
16.614,0.17,-1.39,-0.27,1.42
16.624,0.15,-1.55,-0.31,1.59
16.634,0.18,-1.23,-0.36,1.30
16.644,0.14,-1.24,-0.29,1.28
16.654,0.14,-1.18,-0.09,1.19
16.664,0.14,-1.42,-0.26,1.45
16.674,0.15,-1.53,-0.45,1.61
16.684,0.17,-1.20,-0.29,1.25
16.694,0.14,-1.17,-0.23,1.20
16.704,0.16,-1.12,-0.15,1.14
16.714,0.14,-1.40,-0.30,1.44
16.724,0.14,-1.50,-0.19,1.52
16.734,0.17,-1.20,-0.25,1.23
16.744,0.16,-1.18,-0.32,1.23
16.754,0.17,-1.09,-0.18,1.12
16.764,0.17,-1.25,-0.25,1.28
16.774,0.14,-1.44,-0.41,1.50
16.784,0.18,-1.21,-0.37,1.28
16.794,0.13,-1.10,-0.32,1.15
16.804,0.13,-1.03,-0.18,1.05
16.814,0.15,-1.31,-0.31,1.35
16.824,0.14,-1.43,-0.45,1.51
16.834,0.22,-1.16,-0.42,1.25
16.844,0.19,-1.09,-0.34,1.16
16.854,0.20,-0.98,-0.30,1.04
16.864,0.17,-1.12,-0.30,1.18
16.874,0.11,-1.29,-0.43,1.37
16.884,0.16,-1.08,-0.50,1.20
16.894,0.17,-1.14,-0.12,1.16
16.904,0.20,-0.90,-0.08,0.92
16.914,0.14,-1.24,-0.30,1.29
16.924,0.14,-1.19,-0.35,1.25
16.934,0.17,-1.12,-0.39,1.20
16.944,0.17,-1.07,-0.20,1.10
16.954,0.22,-1.00,-0.05,1.03
16.964,0.12,-1.20,-0.33,1.25
16.974,0.18,-1.13,-0.43,1.22
16.984,0.17,-1.05,-0.43,1.15
16.994,0.15,-1.04,-0.34,1.10
17.004,0.17,-1.03,-0.26,1.07
17.013,0.10,-1.25,-0.42,1.33
17.023,0.18,-1.12,-0.47,1.23
17.034,0.12,-1.01,-0.44,1.10
17.043,0.13,-1.05,-0.40,1.13
17.054,0.18,-1.06,-0.33,1.13
17.064,0.14,-1.28,-0.34,1.33
17.073,0.18,-1.03,-0.44,1.13
17.083,0.12,-0.99,-0.46,1.10
17.093,0.18,-0.94,-0.18,0.97
17.103,0.19,-1.11,-0.24,1.15
17.113,0.12,-1.32,-0.27,1.35
17.123,0.18,-0.99,-0.35,1.07
17.133,0.11,-0.97,-0.52,1.10
17.143,0.14,-0.85,-0.19,0.88
17.153,0.16,-1.12,-0.19,1.15
17.163,0.12,-1.36,-0.46,1.44
17.173,0.19,-1.01,-0.37,1.10
17.183,0.11,-0.89,-0.34,0.96
17.193,0.15,-0.89,-0.27,0.94
17.203,0.14,-1.06,-0.36,1.13
17.213,0.11,-1.35,-0.52,1.45
17.223,0.18,-0.93,-0.46,1.06
17.233,0.17,-0.92,-0.33,0.99
17.243,0.14,-0.86,-0.31,0.92
17.253,0.14,-1.18,-0.29,1.22
17.263,0.11,-1.28,-0.45,1.36
17.273,0.18,-0.99,-0.40,1.09
17.283,0.15,-0.89,-0.31,0.95
17.293,0.14,-0.82,-0.22,0.86
17.303,0.15,-1.06,-0.29,1.11
17.313,0.09,-1.22,-0.49,1.31
17.323,0.17,-0.96,-0.48,1.08
17.333,0.15,-0.91,-0.29,0.96
17.343,0.15,-0.85,-0.27,0.90
17.353,0.13,-1.10,-0.27,1.14
17.363,0.10,-1.16,-0.51,1.27
17.373,0.18,-1.01,-0.51,1.15
17.383,0.11,-0.87,-0.29,0.93
17.393,0.16,-0.81,-0.14,0.83
17.403,0.11,-1.02,-0.46,1.13
17.413,0.11,-1.18,-0.71,1.38
17.423,0.18,-0.91,-0.44,1.02
17.433,0.12,-0.92,-0.31,0.98
17.443,0.17,-0.92,-0.28,0.98
17.453,0.11,-1.12,-0.28,1.16
17.463,0.11,-1.12,-0.53,1.24
17.473,0.09,-0.83,-0.55,1.00
17.483,0.17,-0.92,-0.22,0.96
17.493,0.16,-0.83,-0.25,0.88
17.503,0.12,-1.20,-0.32,1.25
17.513,0.12,-0.97,-0.50,1.10
17.523,0.08,-0.87,-0.58,1.05
17.533,0.12,-0.83,-0.34,0.90
17.543,0.15,-0.90,-0.28,0.95
17.553,0.12,-1.19,-0.42,1.27
17.563,0.17,-0.92,-0.46,1.04
17.573,0.11,-0.89,-0.63,1.10
17.583,0.13,-0.87,-0.30,0.93
17.593,0.13,-0.85,-0.40,0.95
17.603,0.07,-1.24,-0.48,1.33
17.612,0.17,-0.81,-0.34,0.90
17.623,0.11,-0.87,-0.48,1.00
17.633,0.13,-0.77,-0.32,0.84
17.643,0.13,-0.90,-0.26,0.95
17.653,0.11,-1.15,-0.44,1.24
17.663,0.14,-0.85,-0.53,1.02
17.672,0.12,-0.82,-0.41,0.92
17.682,0.14,-0.64,-0.35,0.74
17.692,0.13,-1.04,-0.38,1.11
17.702,0.13,-1.13,-0.40,1.20
17.713,0.13,-0.87,-0.47,1.00
17.722,0.12,-0.80,-0.45,0.92
17.733,0.11,-0.67,-0.26,0.73
17.742,0.13,-0.87,-0.39,0.96
17.752,0.10,-1.17,-0.51,1.28
17.762,0.18,-0.88,-0.45,1.01
17.772,0.12,-0.73,-0.43,0.86
17.782,0.13,-0.66,-0.30,0.73
17.792,0.11,-0.89,-0.33,0.96
17.802,0.08,-1.16,-0.56,1.29
17.813,0.15,-0.80,-0.44,0.92
17.822,0.12,-0.83,-0.31,0.89
17.832,0.15,-0.62,-0.30,0.70
17.842,0.10,-0.97,-0.40,1.06
17.852,0.11,-0.97,-0.47,1.09
17.862,0.13,-0.81,-0.52,0.97
17.872,0.13,-0.81,-0.35,0.89
17.882,0.13,-0.64,-0.28,0.71
17.892,0.09,-0.94,-0.35,1.00
17.902,0.10,-0.97,-0.50,1.10
17.912,0.11,-0.85,-0.61,1.05
17.922,0.15,-0.77,-0.27,0.83
17.932,0.14,-0.73,-0.31,0.81
17.942,0.12,-0.94,-0.40,1.03
17.952,0.07,-0.86,-0.55,1.03
17.962,0.11,-0.79,-0.55,0.97
17.972,0.10,-0.72,-0.39,0.82
17.982,0.16,-0.75,-0.26,0.81
17.992,0.07,-0.94,-0.29,0.99
18.002,0.12,-0.92,-0.54,1.07
18.012,0.09,-0.80,-0.53,0.96
18.022,0.15,-0.75,-0.20,0.79
18.032,0.15,-0.74,-0.42,0.86
18.042,0.12,-1.03,-0.40,1.11
18.052,0.15,-0.74,-0.35,0.83
18.062,0.08,-0.74,-0.57,0.94
18.072,0.10,-0.80,-0.29,0.86
18.082,0.13,-0.74,-0.19,0.78
18.092,0.07,-1.13,-0.44,1.21
18.102,0.10,-0.72,-0.46,0.86
18.112,0.13,-0.70,-0.41,0.82
18.122,0.09,-0.72,-0.28,0.78
18.132,0.16,-0.81,-0.29,0.87
18.142,0.08,-1.06,-0.49,1.17
18.152,0.15,-0.75,-0.45,0.89
18.162,0.09,-0.63,-0.38,0.74
18.172,0.09,-0.71,-0.31,0.78
18.182,0.13,-0.83,-0.37,0.92
18.192,0.07,-1.05,-0.33,1.10
18.202,0.15,-0.73,-0.36,0.82
18.212,0.11,-0.67,-0.31,0.75
18.222,0.11,-0.65,-0.30,0.72
18.232,0.10,-0.79,-0.31,0.85
18.242,0.06,-1.11,-0.43,1.19
18.251,0.18,-0.76,-0.36,0.86
18.262,0.09,-0.71,-0.30,0.78
18.272,0.13,-0.61,-0.18,0.65
18.282,0.06,-0.86,-0.40,0.95
18.291,0.08,-1.02,-0.45,1.12
18.301,0.12,-0.70,-0.45,0.84
18.311,0.10,-0.71,-0.30,0.78
18.322,0.13,-0.56,-0.27,0.64
18.332,0.09,-0.87,-0.38,0.96
18.341,0.09,-0.90,-0.40,0.99
18.352,0.11,-0.75,-0.43,0.87
18.361,0.09,-0.78,-0.36,0.86
18.372,0.16,-0.60,-0.14,0.64
18.381,0.09,-0.89,-0.33,0.95
18.392,0.08,-0.92,-0.39,1.00
18.401,0.16,-0.70,-0.38,0.81
18.411,0.13,-0.83,-0.27,0.88
18.421,0.12,-0.66,-0.10,0.67
18.431,0.07,-0.89,-0.21,0.92
18.441,0.08,-0.85,-0.51,1.00
18.451,0.10,-0.77,-0.48,0.91
18.461,0.11,-0.76,-0.18,0.79
18.471,0.14,-0.75,-0.16,0.78
18.481,0.08,-0.91,-0.38,0.99
18.491,0.12,-0.83,-0.27,0.88
18.501,0.08,-0.75,-0.42,0.86
18.511,0.11,-0.75,-0.18,0.78
18.521,0.12,-0.72,-0.21,0.76
18.531,0.08,-0.96,-0.35,1.02
18.541,0.11,-0.70,-0.37,0.80
18.551,0.08,-0.80,-0.35,0.87
18.561,0.09,-0.71,-0.22,0.75
18.571,0.13,-0.84,-0.22,0.88
18.581,0.09,-1.02,-0.25,1.05
18.591,0.13,-0.71,-0.31,0.79
18.601,0.12,-0.72,-0.45,0.85
18.611,0.10,-0.68,-0.26,0.74
18.621,0.13,-0.84,-0.17,0.87
18.631,0.05,-1.04,-0.29,1.08
18.641,0.11,-0.74,-0.36,0.83
18.651,0.08,-0.71,-0.27,0.76
18.661,0.06,-0.70,-0.15,0.72
18.671,0.12,-0.86,-0.18,0.88
18.681,0.08,-1.03,-0.30,1.08
18.691,0.14,-0.81,-0.32,0.88
18.701,0.09,-0.65,-0.22,0.69
18.711,0.08,-0.66,-0.18,0.69
18.721,0.08,-0.88,-0.30,0.93
18.731,0.09,-1.06,-0.19,1.08
18.741,0.13,-0.77,-0.30,0.84
18.751,0.08,-0.75,-0.26,0.80
18.761,0.13,-0.65,-0.02,0.67
18.771,0.09,-0.84,-0.25,0.88
18.781,0.05,-1.09,-0.39,1.15
18.791,0.16,-0.78,-0.33,0.86
18.801,0.09,-0.72,-0.16,0.74
18.811,0.11,-0.62,-0.14,0.65
18.821,0.08,-0.91,-0.13,0.92
18.831,0.06,-1.07,-0.32,1.11
18.841,0.10,-0.78,-0.36,0.87
18.851,0.11,-0.83,-0.12,0.84
18.861,0.14,-0.57,-0.03,0.59
18.871,0.09,-0.96,-0.22,0.99
18.881,0.06,-0.97,-0.36,1.04
18.891,0.12,-0.79,-0.28,0.85
18.901,0.10,-0.74,-0.17,0.77
18.911,0.12,-0.65,0.02,0.66
18.921,0.04,-0.90,-0.19,0.92
18.931,0.08,-1.02,-0.28,1.06
18.941,0.09,-0.80,-0.29,0.85
18.950,0.08,-0.75,-0.17,0.77
18.960,0.13,-0.72,0.05,0.73
18.970,0.08,-0.89,-0.15,0.91
18.981,0.08,-0.91,-0.29,0.96
18.990,0.08,-0.71,-0.24,0.75
19.000,0.06,-0.74,-0.16,0.76
19.010,0.14,-0.73,-0.05,0.75
19.020,0.11,-0.98,0.05,0.99
19.031,0.07,-0.91,-0.32,0.97
19.040,0.06,-0.80,-0.38,0.89
19.051,0.09,-0.76,-0.02,0.76
19.060,0.14,-0.80,-0.04,0.81
19.070,0.06,-1.06,-0.16,1.07
19.080,0.09,-0.81,-0.15,0.82
19.090,0.09,-0.77,-0.32,0.84
19.100,0.07,-0.72,-0.13,0.73
19.110,0.10,-0.85,-0.03,0.85
19.120,0.05,-1.06,-0.16,1.07
19.130,0.11,-0.86,-0.11,0.88
19.140,0.08,-0.76,-0.24,0.80
19.150,0.05,-0.79,-0.03,0.79
19.160,0.12,-0.84,0.03,0.85
19.170,0.08,-1.09,-0.17,1.11
19.180,0.08,-0.82,-0.29,0.88
19.190,0.08,-0.72,-0.14,0.74
19.200,0.05,-0.73,-0.05,0.73
19.210,0.12,-0.86,-0.07,0.87
19.220,0.04,-1.13,-0.09,1.14
19.230,0.10,-0.86,-0.18,0.89
19.240,0.07,-0.79,-0.13,0.81
19.250,0.10,-0.67,0.11,0.69
19.260,0.06,-0.95,-0.16,0.96
19.270,0.06,-1.09,-0.19,1.10
19.280,0.10,-0.87,-0.20,0.90
19.290,0.10,-0.79,-0.02,0.79
19.300,0.07,-0.65,0.11,0.66
19.310,0.07,-0.97,-0.10,0.98
19.320,0.03,-1.08,-0.14,1.09
19.330,0.10,-0.83,-0.15,0.85
19.340,0.08,-0.79,-0.05,0.80
19.350,0.12,-0.67,0.05,0.68
19.360,0.04,-0.95,-0.09,0.96
19.370,0.05,-1.08,-0.11,1.08
19.380,0.05,-0.86,-0.20,0.88
19.390,0.06,-0.82,-0.07,0.83
19.400,0.13,-0.71,0.18,0.75
19.410,0.03,-0.96,-0.08,0.97
19.420,0.06,-1.03,-0.25,1.06
19.430,0.09,-0.78,-0.11,0.80
19.440,0.06,-0.82,-0.03,0.82
19.450,0.12,-0.76,0.01,0.77
19.460,0.04,-0.93,-0.03,0.93
19.470,0.05,-0.91,-0.20,0.93
19.480,0.07,-0.80,-0.16,0.82
19.490,0.07,-0.77,0.00,0.77
19.500,0.11,-0.83,0.10,0.85
19.510,0.04,-0.98,0.00,0.98
19.520,0.07,-0.89,-0.20,0.92
19.530,0.04,-0.82,-0.19,0.85
19.540,0.07,-0.73,-0.01,0.73
19.550,0.07,-0.83,0.04,0.84
19.560,0.04,-0.96,-0.03,0.96
19.570,0.08,-0.90,-0.10,0.91
19.580,0.01,-0.76,-0.20,0.79
19.590,0.03,-0.75,-0.05,0.75
19.600,0.07,-0.85,0.03,0.85
19.610,0.06,-1.01,-0.04,1.01
19.619,0.08,-0.87,-0.06,0.88
19.629,0.04,-0.73,-0.19,0.75
19.639,0.05,-0.78,0.06,0.79
19.649,0.06,-0.78,-0.02,0.79
19.659,0.02,-1.12,-0.18,1.14
19.669,0.08,-0.80,-0.07,0.80
19.679,0.05,-0.71,-0.09,0.72
19.689,0.04,-0.71,-0.11,0.72
19.699,0.06,-0.86,0.02,0.86
19.709,0.03,-1.07,-0.14,1.08
19.719,0.08,-0.78,-0.13,0.79
19.729,0.05,-0.75,-0.00,0.76
19.739,0.06,-0.70,0.05,0.70
19.749,0.04,-0.90,-0.04,0.91
19.759,0.01,-1.05,-0.11,1.06
19.769,0.06,-0.77,-0.15,0.78
19.779,0.05,-0.74,-0.01,0.74
19.789,0.07,-0.62,0.09,0.63
19.799,0.03,-0.91,-0.07,0.91
19.809,0.01,-1.03,-0.07,1.03
19.819,0.05,-0.79,-0.14,0.81
19.829,0.04,-0.81,-0.03,0.82
19.839,0.07,-0.60,0.14,0.62
19.849,0.03,-0.94,0.09,0.94
19.859,0.01,-0.98,-0.24,1.01
19.869,0.04,-0.86,-0.14,0.87
19.879,0.05,-0.71,0.09,0.72
19.889,0.09,-0.60,0.19,0.63
19.899,0.02,-0.90,-0.13,0.90
19.909,0.00,-0.95,-0.21,0.98
19.919,0.04,-0.77,-0.17,0.79
19.929,0.04,-0.76,0.01,0.77
19.939,0.09,-0.66,0.17,0.69
19.949,0.02,-0.93,0.01,0.93
19.959,0.01,-0.91,-0.06,0.91
19.969,0.02,-0.73,-0.18,0.75
19.979,0.03,-0.75,0.01,0.75
19.989,0.09,-0.68,0.18,0.71
19.999,0.03,-0.90,-0.02,0.90
20.009,0.01,-0.87,-0.17,0.88
20.019,0.03,-0.72,-0.13,0.73
20.029,0.00,-0.70,0.00,0.70
20.039,0.07,-0.74,0.17,0.76
20.049,0.01,-0.96,0.09,0.97
20.059,0.04,-0.88,-0.11,0.89
20.069,0.02,-0.66,-0.15,0.67
20.079,0.02,-0.68,0.05,0.68
20.089,0.06,-0.74,0.14,0.76
20.099,0.03,-0.97,-0.00,0.97
20.109,0.03,-0.75,-0.16,0.76
20.119,0.01,-0.62,-0.06,0.63
20.129,-0.01,-0.66,-0.00,0.66
20.139,0.06,-0.79,0.08,0.79
20.149,0.02,-1.01,0.12,1.02
20.159,0.03,-0.77,-0.08,0.78
20.169,0.04,-0.62,-0.04,0.62
20.179,0.04,-0.54,0.20,0.58
20.189,0.01,-0.74,0.02,0.74
20.199,0.03,-1.00,-0.08,1.00
20.209,0.05,-0.70,-0.07,0.71
20.219,0.04,-0.57,0.01,0.57
20.229,0.03,-0.53,0.21,0.57
20.238,0.00,-0.82,-0.04,0.83
20.249,0.03,-0.99,-0.01,0.99
20.259,0.06,-0.70,-0.03,0.70
20.269,0.04,-0.59,-0.01,0.59
20.278,0.02,-0.49,0.14,0.51
20.288,0.02,-0.78,0.07,0.79
20.299,-0.01,-0.91,-0.10,0.92
20.309,0.04,-0.73,-0.03,0.73
20.319,0.03,-0.59,0.06,0.59
20.328,0.04,-0.51,0.09,0.52
20.338,0.01,-0.74,0.02,0.74
20.348,-0.01,-0.96,-0.07,0.96
20.358,0.05,-0.69,-0.12,0.70
20.368,0.03,-0.59,0.11,0.60
20.379,0.08,-0.46,0.30,0.55
20.388,-0.01,-0.72,0.09,0.73
20.398,-0.05,-0.92,-0.17,0.93
20.408,0.04,-0.60,-0.02,0.60
20.418,-0.01,-0.63,0.04,0.63
20.428,0.08,-0.47,0.26,0.54
20.438,0.01,-0.76,0.14,0.78
20.448,-0.02,-0.85,-0.11,0.86
20.458,0.01,-0.58,-0.10,0.59
20.468,0.01,-0.60,0.12,0.61
20.478,0.07,-0.54,0.27,0.61
20.488,0.02,-0.80,0.18,0.82
20.498,-0.01,-0.81,-0.12,0.82
20.508,-0.00,-0.56,-0.09,0.57
20.518,-0.01,-0.55,0.18,0.58
20.528,0.05,-0.58,0.08,0.59
20.538,0.01,-0.85,0.17,0.86
20.548,-0.01,-0.72,-0.03,0.72
20.558,-0.03,-0.61,-0.13,0.62
20.568,0.03,-0.51,0.16,0.53
20.578,0.02,-0.60,0.15,0.62
20.588,0.00,-0.88,0.04,0.88
20.598,0.06,-0.59,0.03,0.60
20.608,-0.01,-0.55,-0.06,0.56
20.618,-0.03,-0.46,0.20,0.51
20.628,0.03,-0.60,0.19,0.63
20.638,0.00,-0.92,0.09,0.92
20.648,0.01,-0.60,0.12,0.61
20.658,0.01,-0.51,0.02,0.51
20.668,-0.00,-0.50,0.15,0.52
20.678,0.02,-0.61,0.15,0.63
20.688,-0.03,-0.92,0.02,0.92
20.698,0.04,-0.58,0.00,0.58
20.708,0.02,-0.45,0.09,0.45
20.718,-0.00,-0.46,0.17,0.49
20.728,-0.01,-0.68,0.14,0.69
20.738,-0.04,-0.91,0.00,0.91
20.748,0.03,-0.61,0.02,0.61
20.758,0.00,-0.46,0.09,0.47
20.768,0.01,-0.42,0.22,0.47
20.778,-0.01,-0.65,0.20,0.68
20.788,-0.03,-0.88,0.01,0.88
20.798,0.03,-0.58,-0.02,0.58
20.808,-0.00,-0.47,0.11,0.48
20.818,0.03,-0.39,0.27,0.47
20.828,-0.02,-0.63,0.08,0.63
20.838,-0.04,-0.85,-0.03,0.85
20.848,0.01,-0.60,0.09,0.60
20.858,0.01,-0.48,0.12,0.50
20.868,0.04,-0.39,0.29,0.49
20.878,-0.01,-0.66,0.17,0.68
20.888,-0.05,-0.80,0.03,0.80
20.898,-0.00,-0.55,-0.07,0.55
20.908,-0.04,-0.53,0.12,0.54
20.918,0.05,-0.37,0.32,0.50
20.928,-0.03,-0.66,0.12,0.68
20.938,-0.04,-0.74,-0.00,0.74
20.947,-0.01,-0.54,0.08,0.55
20.958,-0.05,-0.56,0.17,0.59
20.968,0.06,-0.43,0.34,0.55
20.978,-0.03,-0.70,0.22,0.73
20.988,-0.04,-0.71,0.02,0.71
20.997,-0.00,-0.46,-0.01,0.46
21.007,-0.05,-0.50,0.14,0.52
21.017,0.03,-0.50,0.26,0.57
21.027,-0.03,-0.66,0.15,0.68
21.037,-0.01,-0.73,0.10,0.74
21.047,-0.04,-0.45,0.02,0.45
21.057,-0.01,-0.55,0.18,0.58
21.067,-0.00,-0.50,0.35,0.61
21.077,-0.03,-0.79,0.15,0.80
21.087,0.00,-0.62,0.15,0.64
21.097,-0.04,-0.42,0.04,0.43
21.107,-0.04,-0.49,0.12,0.51
21.117,0.01,-0.51,0.36,0.62
21.127,-0.04,-0.77,0.10,0.78
21.137,0.01,-0.61,0.09,0.62
21.147,-0.02,-0.35,0.15,0.38
21.157,-0.05,-0.50,0.26,0.57
21.167,-0.02,-0.55,0.30,0.63
21.177,-0.05,-0.79,0.19,0.81
21.187,0.02,-0.56,0.07,0.56
21.197,-0.06,-0.36,0.17,0.40
21.207,-0.03,-0.39,0.21,0.44
21.217,-0.03,-0.56,0.13,0.58
21.227,-0.06,-0.84,0.06,0.84
21.237,0.03,-0.50,0.16,0.52
21.247,-0.02,-0.49,0.20,0.53
21.257,-0.03,-0.32,0.25,0.41
21.267,-0.04,-0.60,0.26,0.66
21.277,-0.07,-0.78,0.11,0.79
21.287,0.00,-0.46,0.09,0.47
21.297,-0.05,-0.43,0.18,0.47
21.307,0.01,-0.31,0.36,0.47
21.317,-0.08,-0.63,0.19,0.66
21.327,-0.04,-0.79,0.17,0.81
21.337,-0.04,-0.49,0.01,0.49
21.347,-0.02,-0.44,0.18,0.48
21.357,0.01,-0.26,0.48,0.55
21.367,-0.03,-0.64,0.19,0.66
21.377,-0.06,-0.69,0.08,0.70
21.387,-0.05,-0.48,0.03,0.49
21.397,-0.04,-0.43,0.11,0.44
21.407,0.01,-0.33,0.43,0.54
21.417,-0.06,-0.67,0.26,0.72
21.427,-0.04,-0.69,0.02,0.69
21.437,-0.06,-0.44,0.12,0.46
21.447,-0.04,-0.42,0.14,0.45
21.457,0.03,-0.33,0.35,0.48
21.467,-0.05,-0.66,0.21,0.69
21.477,-0.02,-0.64,0.09,0.65
21.487,-0.06,-0.43,-0.04,0.43
21.497,-0.05,-0.41,0.28,0.50
21.507,-0.02,-0.38,0.39,0.54
21.517,-0.06,-0.68,0.16,0.70
21.527,-0.05,-0.54,0.12,0.55
21.537,-0.03,-0.39,0.17,0.42
21.547,-0.07,-0.43,0.16,0.46
21.557,-0.00,-0.45,0.31,0.55
21.567,-0.06,-0.70,0.18,0.73
21.577,-0.04,-0.53,0.17,0.56
21.587,-0.07,-0.37,0.08,0.39
21.596,-0.07,-0.39,0.20,0.44
21.607,-0.04,-0.47,0.36,0.60
21.616,-0.02,-0.68,0.22,0.71
21.626,-0.04,-0.52,0.05,0.53
21.637,-0.04,-0.34,0.22,0.40
21.646,-0.08,-0.34,0.22,0.42
21.656,-0.05,-0.54,0.23,0.59
21.667,-0.06,-0.72,0.31,0.79
21.677,0.01,-0.48,0.19,0.51
21.686,-0.04,-0.39,0.11,0.41
21.697,-0.06,-0.32,0.24,0.41
21.706,-0.05,-0.47,0.32,0.57
21.716,-0.07,-0.77,0.21,0.80
21.726,-0.04,-0.48,0.15,0.50
21.736,-0.06,-0.44,0.25,0.51
21.746,-0.05,-0.25,0.32,0.41
21.756,-0.07,-0.49,0.28,0.57
21.766,-0.10,-0.74,0.16,0.76
21.776,-0.06,-0.45,0.13,0.47
21.786,-0.02,-0.41,0.27,0.49
21.796,-0.05,-0.31,0.41,0.52
21.806,-0.07,-0.56,0.28,0.63
21.816,-0.08,-0.73,0.22,0.77
21.826,-0.06,-0.48,0.05,0.48
21.836,-0.05,-0.41,0.23,0.47
21.846,-0.01,-0.21,0.43,0.48
21.856,-0.09,-0.55,0.28,0.63
21.866,-0.10,-0.68,0.18,0.71
21.876,-0.09,-0.44,0.08,0.46
21.886,-0.05,-0.41,0.33,0.53
21.896,-0.03,-0.35,0.47,0.59
21.906,-0.06,-0.58,0.32,0.66
21.916,-0.07,-0.67,0.16,0.69
21.926,-0.08,-0.44,0.09,0.46
21.936,-0.09,-0.37,0.27,0.47
21.946,-0.05,-0.36,0.43,0.57
21.956,-0.10,-0.60,0.23,0.65
21.966,-0.06,-0.51,0.21,0.55
21.976,-0.10,-0.48,0.09,0.50
21.986,-0.08,-0.45,0.30,0.55
21.996,-0.04,-0.40,0.46,0.61
22.006,-0.09,-0.63,0.28,0.69
22.016,-0.07,-0.47,0.20,0.52
22.026,-0.08,-0.41,0.09,0.43
22.036,-0.11,-0.41,0.32,0.54
22.046,-0.01,-0.39,0.40,0.57
22.056,-0.08,-0.67,0.17,0.69
22.066,-0.09,-0.50,0.17,0.53
22.076,-0.10,-0.33,0.23,0.41
22.086,-0.10,-0.43,0.32,0.54
22.096,-0.03,-0.51,0.42,0.66
22.106,-0.09,-0.73,0.28,0.78
22.116,-0.07,-0.45,0.23,0.51
22.126,-0.09,-0.31,0.16,0.36
22.136,-0.11,-0.36,0.34,0.50
22.146,-0.05,-0.52,0.44,0.69
22.156,-0.13,-0.78,0.25,0.83
22.166,-0.07,-0.50,0.25,0.56
22.176,-0.11,-0.33,0.28,0.44
22.186,-0.10,-0.35,0.39,0.54
22.196,-0.09,-0.52,0.36,0.64
22.206,-0.12,-0.75,0.25,0.80
22.216,-0.05,-0.46,0.20,0.51
22.226,-0.07,-0.35,0.38,0.52
22.236,-0.08,-0.29,0.43,0.53
22.246,-0.10,-0.61,0.36,0.71
22.255,-0.16,-0.74,0.17,0.78
22.265,-0.05,-0.46,0.23,0.51
22.275,-0.10,-0.32,0.38,0.50
22.285,-0.05,-0.32,0.46,0.56
22.295,-0.14,-0.55,0.33,0.66
22.305,-0.09,-0.75,0.33,0.82
22.315,-0.09,-0.45,0.19,0.50
22.325,-0.08,-0.40,0.42,0.58
22.335,-0.09,-0.25,0.58,0.64
22.345,-0.11,-0.59,0.37,0.71
22.355,-0.12,-0.63,0.22,0.68
22.365,-0.10,-0.46,0.19,0.51
22.375,-0.11,-0.37,0.40,0.56
22.386,-0.06,-0.31,0.59,0.67
22.395,-0.11,-0.60,0.33,0.69
22.405,-0.16,-0.64,0.28,0.71
22.415,-0.12,-0.43,0.29,0.54
22.425,-0.09,-0.41,0.41,0.59
22.435,-0.06,-0.36,0.56,0.67
22.445,-0.10,-0.62,0.43,0.76
22.455,-0.12,-0.70,0.19,0.73
22.465,-0.09,-0.37,0.24,0.45
22.475,-0.14,-0.45,0.39,0.61
22.485,-0.05,-0.44,0.57,0.73
22.495,-0.16,-0.61,0.35,0.72
22.505,-0.12,-0.62,0.35,0.72
22.515,-0.11,-0.32,0.27,0.43
22.525,-0.14,-0.46,0.39,0.62
22.535,-0.06,-0.42,0.57,0.71
22.545,-0.13,-0.78,0.38,0.87
22.555,-0.08,-0.51,0.27,0.58
22.565,-0.11,-0.36,0.44,0.58
22.575,-0.16,-0.40,0.44,0.62
22.585,-0.11,-0.52,0.54,0.75
22.595,-0.12,-0.70,0.52,0.88
22.605,-0.10,-0.56,0.31,0.65
22.615,-0.14,-0.44,0.36,0.58
22.625,-0.11,-0.38,0.50,0.64
22.635,-0.10,-0.61,0.55,0.83
22.645,-0.15,-0.77,0.28,0.83
22.655,-0.07,-0.51,0.44,0.68
22.665,-0.15,-0.34,0.37,0.52
22.675,-0.13,-0.42,0.55,0.70
22.685,-0.15,-0.52,0.44,0.70
22.695,-0.17,-0.81,0.42,0.93
22.705,-0.11,-0.54,0.35,0.65
22.715,-0.11,-0.39,0.60,0.72
22.725,-0.10,-0.38,0.54,0.67
22.735,-0.15,-0.61,0.42,0.76
22.745,-0.15,-0.75,0.46,0.89
22.755,-0.10,-0.57,0.31,0.65
22.765,-0.15,-0.40,0.40,0.58
22.775,-0.12,-0.36,0.65,0.75
22.785,-0.13,-0.66,0.43,0.80
22.795,-0.19,-0.77,0.49,0.93
22.805,-0.15,-0.54,0.33,0.65
22.815,-0.12,-0.49,0.56,0.75
22.825,-0.11,-0.31,0.70,0.78
22.835,-0.16,-0.66,0.39,0.78
22.845,-0.15,-0.77,0.44,0.90
22.855,-0.15,-0.51,0.34,0.63
22.864,-0.15,-0.49,0.44,0.67
22.874,-0.09,-0.38,0.69,0.80
22.885,-0.18,-0.64,0.60,0.90
22.895,-0.20,-0.73,0.39,0.86
22.905,-0.15,-0.49,0.35,0.63
22.915,-0.17,-0.44,0.53,0.71
22.924,-0.10,-0.49,0.64,0.82
22.934,-0.14,-0.65,0.60,0.89
22.944,-0.18,-0.70,0.42,0.84
22.954,-0.16,-0.52,0.33,0.64
22.964,-0.19,-0.46,0.50,0.70
22.975,-0.11,-0.42,0.66,0.78
22.984,-0.17,-0.69,0.61,0.94
22.994,-0.19,-0.69,0.43,0.83
23.004,-0.16,-0.48,0.35,0.61
23.014,-0.20,-0.50,0.50,0.73
23.024,-0.09,-0.50,0.65,0.83
23.034,-0.16,-0.73,0.53,0.92
23.044,-0.15,-0.67,0.45,0.82
23.054,-0.19,-0.43,0.35,0.59
23.064,-0.21,-0.53,0.41,0.70
23.074,-0.13,-0.48,0.78,0.92
23.084,-0.18,-0.76,0.55,0.96
23.094,-0.16,-0.67,0.46,0.83
23.104,-0.16,-0.42,0.49,0.67
23.114,-0.20,-0.52,0.62,0.83
23.124,-0.15,-0.49,0.57,0.77
23.134,-0.17,-0.80,0.49,0.96
23.144,-0.14,-0.57,0.46,0.74
23.154,-0.18,-0.46,0.47,0.68
23.164,-0.18,-0.41,0.56,0.71
23.174,-0.18,-0.63,0.62,0.90
23.184,-0.21,-0.83,0.49,0.98
23.194,-0.17,-0.57,0.46,0.75
23.204,-0.18,-0.47,0.61,0.79
23.214,-0.18,-0.43,0.66,0.81
23.224,-0.16,-0.67,0.54,0.87
23.234,-0.22,-0.81,0.40,0.93
23.244,-0.15,-0.56,0.46,0.74
23.254,-0.19,-0.43,0.46,0.66
23.264,-0.17,-0.46,0.70,0.85
23.274,-0.17,-0.66,0.64,0.93
23.284,-0.23,-0.84,0.50,1.00
23.294,-0.18,-0.58,0.38,0.71
23.304,-0.18,-0.45,0.57,0.75
23.314,-0.15,-0.40,0.72,0.84
23.324,-0.18,-0.67,0.57,0.90
23.334,-0.20,-0.81,0.50,0.98
23.344,-0.18,-0.59,0.39,0.73
23.354,-0.19,-0.47,0.55,0.75
23.364,-0.15,-0.39,0.71,0.82
23.374,-0.20,-0.70,0.61,0.95
23.384,-0.22,-0.77,0.47,0.93
23.394,-0.17,-0.59,0.42,0.75
23.404,-0.20,-0.42,0.65,0.80
23.414,-0.15,-0.43,0.79,0.91
23.424,-0.22,-0.71,0.58,0.94
23.434,-0.21,-0.72,0.55,0.93
23.444,-0.19,-0.54,0.52,0.77
23.454,-0.23,-0.54,0.52,0.79
23.464,-0.13,-0.41,0.85,0.95
23.474,-0.18,-0.74,0.62,0.99
23.484,-0.21,-0.73,0.44,0.88
23.493,-0.20,-0.46,0.42,0.65
23.504,-0.23,-0.51,0.63,0.84
23.513,-0.17,-0.43,0.77,0.90
23.524,-0.19,-0.81,0.73,1.10
23.534,-0.19,-0.64,0.55,0.86
23.544,-0.20,-0.48,0.57,0.77
23.554,-0.22,-0.45,0.65,0.82
23.563,-0.20,-0.53,0.72,0.92
23.574,-0.17,-0.78,0.72,1.08
23.583,-0.19,-0.67,0.61,0.93
23.593,-0.16,-0.50,0.57,0.78
23.604,-0.23,-0.40,0.69,0.83
23.613,-0.21,-0.65,0.67,0.96
23.623,-0.21,-0.76,0.62,1.00
23.633,-0.20,-0.61,0.54,0.84
23.643,-0.17,-0.47,0.60,0.78
23.653,-0.22,-0.52,0.73,0.93
23.663,-0.17,-0.64,0.66,0.93
23.673,-0.23,-0.89,0.60,1.09
23.683,-0.18,-0.53,0.67,0.87
23.693,-0.23,-0.51,0.63,0.84
23.703,-0.20,-0.45,0.75,0.89
23.713,-0.22,-0.63,0.67,0.95
23.723,-0.23,-0.85,0.61,1.07
23.733,-0.20,-0.54,0.55,0.80
23.743,-0.22,-0.49,0.53,0.76
23.753,-0.18,-0.48,0.85,1.00
23.763,-0.22,-0.67,0.77,1.04
23.773,-0.28,-0.87,0.61,1.10
23.783,-0.20,-0.62,0.60,0.88
23.793,-0.21,-0.44,0.70,0.85
23.803,-0.24,-0.41,0.81,0.94
23.813,-0.23,-0.61,0.66,0.93
23.823,-0.25,-0.84,0.60,1.06
23.833,-0.19,-0.55,0.50,0.77
23.843,-0.23,-0.50,0.68,0.88
23.853,-0.21,-0.39,0.89,0.99
23.863,-0.26,-0.72,0.77,1.08
23.873,-0.26,-0.83,0.66,1.09
23.883,-0.22,-0.52,0.62,0.84
23.893,-0.24,-0.54,0.67,0.90
23.903,-0.18,-0.44,0.91,1.03
23.913,-0.22,-0.68,0.74,1.03
23.923,-0.26,-0.81,0.55,1.02
23.933,-0.21,-0.49,0.48,0.72
23.943,-0.27,-0.49,0.67,0.87
23.953,-0.18,-0.48,0.94,1.07
23.963,-0.24,-0.77,0.83,1.16
23.973,-0.23,-0.81,0.67,1.07
23.983,-0.23,-0.53,0.57,0.81
23.993,-0.26,-0.51,0.72,0.92
24.003,-0.21,-0.37,0.93,1.02
24.013,-0.24,-0.76,0.75,1.10
24.023,-0.23,-0.70,0.64,0.98
24.033,-0.22,-0.48,0.53,0.75
24.043,-0.27,-0.43,0.67,0.84
24.053,-0.21,-0.50,0.81,0.98
24.063,-0.25,-0.84,0.84,1.22
24.073,-0.22,-0.68,0.71,1.01
24.083,-0.20,-0.58,0.70,0.93
24.093,-0.29,-0.38,0.68,0.83
24.103,-0.20,-0.60,0.81,1.03
24.113,-0.25,-0.71,0.64,0.99
24.123,-0.22,-0.63,0.56,0.87
24.133,-0.25,-0.51,0.65,0.86
24.143,-0.24,-0.45,0.83,0.97
24.153,-0.24,-0.60,0.78,1.02
24.163,-0.29,-0.87,0.77,1.20
24.173,-0.22,-0.58,0.67,0.91
24.182,-0.26,-0.49,0.65,0.85
24.192,-0.25,-0.38,0.85,0.96
24.202,-0.25,-0.61,0.85,1.08
24.212,-0.28,-0.90,0.64,1.14
24.223,-0.20,-0.52,0.71,0.90
24.232,-0.26,-0.47,0.76,0.94
24.243,-0.26,-0.46,0.83,0.99
24.252,-0.25,-0.64,0.82,1.07
24.262,-0.29,-0.85,0.59,1.07
24.272,-0.25,-0.51,0.64,0.85
24.282,-0.26,-0.45,0.76,0.92
24.292,-0.22,-0.46,0.93,1.06
24.303,-0.23,-0.62,0.87,1.09
24.312,-0.31,-0.86,0.72,1.16
24.322,-0.25,-0.49,0.61,0.82
24.332,-0.24,-0.44,0.80,0.94
24.342,-0.22,-0.41,0.92,1.03
24.352,-0.27,-0.69,0.82,1.10
24.362,-0.31,-0.80,0.63,1.07
24.372,-0.27,-0.54,0.59,0.85
24.382,-0.25,-0.48,0.68,0.87
24.392,-0.21,-0.45,0.89,1.02
24.402,-0.28,-0.74,0.74,1.09
24.412,-0.28,-0.74,0.71,1.07
24.422,-0.27,-0.49,0.66,0.86
24.432,-0.31,-0.51,0.62,0.86
24.442,-0.27,-0.46,0.96,1.10
24.452,-0.25,-0.69,0.81,1.09
24.462,-0.30,-0.77,0.63,1.04
24.472,-0.25,-0.50,0.76,0.95
24.482,-0.29,-0.49,0.78,0.96
24.492,-0.26,-0.50,0.86,1.03
24.502,-0.26,-0.71,0.94,1.20
24.512,-0.31,-0.68,0.53,0.92
24.522,-0.30,-0.48,0.63,0.85
24.532,-0.28,-0.42,0.94,1.06
24.542,-0.27,-0.58,0.83,1.04
24.552,-0.30,-0.73,0.80,1.13
24.562,-0.25,-0.67,0.86,1.11
24.572,-0.31,-0.45,0.56,0.78
24.582,-0.30,-0.44,0.87,1.02
24.592,-0.27,-0.50,0.90,1.06
24.602,-0.28,-0.80,0.78,1.15
24.612,-0.26,-0.53,0.73,0.94
24.622,-0.30,-0.44,0.79,0.95
24.632,-0.29,-0.47,0.94,1.09
24.642,-0.28,-0.54,0.90,1.08
24.652,-0.29,-0.88,0.81,1.23
24.662,-0.26,-0.55,0.83,1.03
24.672,-0.27,-0.45,0.77,0.93
24.682,-0.30,-0.41,0.80,0.95
24.692,-0.28,-0.58,0.89,1.11
24.702,-0.31,-0.77,0.82,1.17
24.712,-0.29,-0.58,0.67,0.93
24.722,-0.29,-0.42,0.83,0.97
24.732,-0.32,-0.44,1.06,1.19
24.742,-0.28,-0.66,0.79,1.07
24.752,-0.31,-0.81,0.79,1.17
24.762,-0.27,-0.52,0.80,0.99
24.772,-0.27,-0.42,0.73,0.88
24.782,-0.29,-0.41,1.07,1.19
24.792,-0.28,-0.61,0.90,1.12
24.802,-0.35,-0.89,0.68,1.17
24.812,-0.29,-0.46,0.70,0.89
24.822,-0.28,-0.46,0.89,1.04
24.832,-0.29,-0.38,0.98,1.09
24.842,-0.31,-0.66,0.90,1.15
24.851,-0.31,-0.81,0.81,1.18
24.861,-0.30,-0.50,0.66,0.88
24.871,-0.30,-0.47,0.86,1.03
24.881,-0.27,-0.35,1.01,1.10
24.891,-0.31,-0.67,0.90,1.17
24.902,-0.32,-0.73,0.78,1.11
24.911,-0.31,-0.49,0.69,0.90
24.922,-0.31,-0.44,0.83,0.99
24.931,-0.26,-0.41,1.08,1.18
24.941,-0.30,-0.75,0.96,1.25
24.952,-0.31,-0.67,0.80,1.08
24.962,-0.31,-0.52,0.69,0.92
24.972,-0.31,-0.41,0.88,1.02
24.981,-0.29,-0.41,0.98,1.10
24.991,-0.29,-0.69,0.97,1.23
25.001,-0.32,-0.61,0.74,1.01
25.011,-0.31,-0.48,0.77,0.96
25.021,-0.32,-0.42,0.92,1.06
25.031,-0.30,-0.51,1.06,1.22
25.041,-0.35,-0.73,0.93,1.23
25.051,-0.27,-0.60,0.84,1.07
25.061,-0.33,-0.45,0.75,0.94
25.071,-0.31,-0.42,0.97,1.10
25.081,-0.30,-0.46,1.00,1.14
25.091,-0.33,-0.81,0.94,1.29
25.101,-0.30,-0.50,0.89,1.07
25.111,-0.35,-0.49,0.85,1.05
25.121,-0.32,-0.45,0.98,1.12
25.131,-0.27,-0.50,1.05,1.19
25.141,-0.37,-0.80,0.81,1.20
25.151,-0.27,-0.50,0.78,0.97
25.161,-0.30,-0.41,0.82,0.96
25.171,-0.34,-0.41,1.01,1.14
25.181,-0.28,-0.52,1.08,1.23
25.191,-0.39,-0.85,0.76,1.21
25.201,-0.29,-0.48,0.82,1.00
25.211,-0.32,-0.34,0.94,1.05
25.221,-0.35,-0.42,0.99,1.13
25.231,-0.32,-0.57,1.06,1.25
25.241,-0.33,-0.79,0.98,1.30
25.251,-0.31,-0.53,0.80,1.00
25.261,-0.30,-0.34,0.93,1.04
25.271,-0.33,-0.35,1.03,1.13
25.281,-0.32,-0.64,1.02,1.25
25.291,-0.34,-0.77,0.86,1.20
25.301,-0.33,-0.54,0.84,1.05
25.311,-0.33,-0.39,1.07,1.19
25.321,-0.34,-0.38,1.10,1.21
25.331,-0.33,-0.62,1.04,1.25
25.341,-0.39,-0.76,0.88,1.23
25.351,-0.32,-0.48,0.77,0.96
25.361,-0.30,-0.37,1.02,1.13
25.371,-0.31,-0.45,1.08,1.21
25.381,-0.31,-0.63,0.90,1.14
25.391,-0.38,-0.75,0.96,1.28
25.401,-0.34,-0.50,0.79,1.00
25.411,-0.35,-0.45,0.96,1.12
25.421,-0.30,-0.30,1.16,1.24
25.431,-0.33,-0.71,1.01,1.27
25.441,-0.35,-0.66,0.92,1.18
25.451,-0.34,-0.42,0.80,0.96
25.461,-0.34,-0.44,0.96,1.11
25.471,-0.30,-0.38,1.19,1.28
25.481,-0.33,-0.69,1.14,1.37
25.491,-0.34,-0.74,0.93,1.24
25.501,-0.36,-0.43,0.90,1.06
25.510,-0.33,-0.35,1.00,1.11
25.521,-0.34,-0.38,1.01,1.13
25.531,-0.35,-0.66,1.07,1.30
25.541,-0.36,-0.57,0.89,1.12
25.550,-0.34,-0.53,0.80,1.02
25.561,-0.34,-0.31,1.15,1.24
25.570,-0.35,-0.51,1.10,1.26
25.581,-0.34,-0.75,0.94,1.25
25.590,-0.35,-0.53,0.91,1.11
25.600,-0.33,-0.41,0.90,1.04
25.610,-0.38,-0.41,1.02,1.16
25.620,-0.31,-0.51,1.28,1.41
25.630,-0.40,-0.72,1.08,1.36
25.640,-0.33,-0.62,0.90,1.14
25.650,-0.37,-0.30,1.02,1.13
25.660,-0.35,-0.40,1.16,1.28
25.670,-0.35,-0.53,1.04,1.22
25.680,-0.34,-0.76,1.02,1.31
25.690,-0.33,-0.59,0.80,1.05
25.700,-0.37,-0.39,1.00,1.13
25.710,-0.37,-0.37,1.19,1.30
25.720,-0.35,-0.60,1.08,1.29
25.730,-0.40,-0.82,1.01,1.36
25.740,-0.32,-0.50,0.97,1.14
25.750,-0.38,-0.39,0.94,1.09
25.760,-0.33,-0.36,1.21,1.31
25.770,-0.36,-0.57,1.17,1.35
25.780,-0.40,-0.83,0.96,1.33
25.790,-0.36,-0.44,0.89,1.06
25.800,-0.40,-0.40,1.03,1.17
25.810,-0.33,-0.40,1.21,1.32
25.820,-0.34,-0.64,1.20,1.40
25.830,-0.44,-0.79,0.96,1.31
25.840,-0.34,-0.46,0.97,1.13
25.850,-0.37,-0.42,1.09,1.22
25.860,-0.32,-0.31,1.16,1.24
25.870,-0.39,-0.69,1.08,1.34
25.880,-0.37,-0.73,0.91,1.22
25.890,-0.38,-0.49,0.84,1.04
25.900,-0.37,-0.44,1.01,1.16
25.910,-0.36,-0.37,1.20,1.31
25.920,-0.37,-0.70,1.06,1.32
25.930,-0.44,-0.73,0.82,1.18
25.940,-0.33,-0.48,0.98,1.14
25.950,-0.41,-0.40,1.07,1.21
25.960,-0.37,-0.46,1.20,1.34
25.970,-0.36,-0.71,1.16,1.41
25.980,-0.41,-0.73,0.99,1.30
25.990,-0.40,-0.38,0.96,1.11
26.000,-0.39,-0.46,1.09,1.25
26.010,-0.35,-0.42,1.20,1.31
26.020,-0.40,-0.73,1.14,1.41
26.030,-0.40,-0.62,0.95,1.20
26.040,-0.40,-0.44,1.06,1.21
26.050,-0.38,-0.42,1.13,1.26
26.061,-0.38,-0.54,1.23,1.40
26.070,-0.39,-0.74,1.10,1.38
26.080,-0.38,-0.59,0.92,1.16
26.090,-0.41,-0.42,0.96,1.13
26.100,-0.39,-0.40,1.23,1.35
26.110,-0.37,-0.56,1.19,1.37
26.120,-0.44,-0.81,1.01,1.37
26.129,-0.39,-0.58,1.04,1.25
26.140,-0.42,-0.42,0.98,1.15
26.149,-0.39,-0.40,1.10,1.23
26.160,-0.42,-0.58,1.14,1.35
26.169,-0.38,-0.81,1.12,1.43
26.180,-0.39,-0.54,0.99,1.19
26.189,-0.39,-0.42,1.04,1.18
26.199,-0.44,-0.43,1.24,1.39
26.210,-0.40,-0.60,1.35,1.53
26.219,-0.46,-0.83,0.99,1.37
26.229,-0.37,-0.61,1.02,1.25
26.239,-0.37,-0.34,1.18,1.28
26.249,-0.39,-0.48,1.19,1.34
26.259,-0.40,-0.59,1.04,1.26
26.269,-0.43,-0.82,1.06,1.41
26.279,-0.42,-0.49,0.86,1.07
26.289,-0.38,-0.47,1.09,1.25
26.299,-0.39,-0.40,1.35,1.47
26.309,-0.44,-0.72,1.13,1.41
26.319,-0.44,-0.79,1.02,1.36
26.329,-0.42,-0.49,0.94,1.14
26.339,-0.41,-0.42,0.96,1.13
26.349,-0.39,-0.36,1.25,1.35
26.359,-0.42,-0.72,1.18,1.45
26.369,-0.44,-0.79,1.07,1.40
26.379,-0.43,-0.53,1.00,1.21
26.389,-0.45,-0.46,1.17,1.34
26.399,-0.42,-0.45,1.17,1.32
26.409,-0.41,-0.65,1.17,1.40
26.419,-0.45,-0.78,1.12,1.44
26.429,-0.40,-0.45,0.95,1.13
26.439,-0.43,-0.54,1.14,1.33
26.449,-0.39,-0.44,1.25,1.38
26.459,-0.42,-0.69,1.10,1.36
26.469,-0.47,-0.72,0.96,1.29
26.479,-0.42,-0.47,0.98,1.17
26.489,-0.45,-0.51,1.11,1.30
26.499,-0.39,-0.56,1.25,1.43
26.509,-0.41,-0.74,1.19,1.46
26.519,-0.44,-0.69,1.08,1.36
26.529,-0.46,-0.47,0.96,1.17
26.539,-0.43,-0.47,1.13,1.30
26.549,-0.41,-0.53,1.33,1.48
26.559,-0.43,-0.73,1.24,1.50
26.569,-0.42,-0.70,0.99,1.28
26.579,-0.46,-0.50,1.06,1.26
26.589,-0.43,-0.43,1.26,1.40
26.599,-0.44,-0.60,1.22,1.43
26.609,-0.43,-0.87,1.18,1.53
26.619,-0.40,-0.57,1.03,1.24
26.629,-0.46,-0.53,0.99,1.22
26.639,-0.47,-0.38,1.20,1.35
26.649,-0.43,-0.60,1.15,1.36
26.659,-0.47,-0.84,1.12,1.47
26.669,-0.40,-0.53,1.19,1.36
26.679,-0.46,-0.50,1.05,1.25
26.689,-0.44,-0.49,1.25,1.41
26.699,-0.44,-0.59,1.30,1.50
26.709,-0.48,-0.84,1.12,1.48
26.719,-0.42,-0.55,1.03,1.24
26.729,-0.45,-0.47,1.15,1.33
26.739,-0.43,-0.45,1.26,1.41
26.749,-0.44,-0.62,1.28,1.49
26.759,-0.50,-0.85,1.15,1.52
26.769,-0.44,-0.57,0.97,1.20
26.779,-0.47,-0.47,1.11,1.30
26.789,-0.42,-0.36,1.33,1.44
26.799,-0.46,-0.72,1.22,1.49
26.809,-0.49,-0.88,1.17,1.54
26.818,-0.45,-0.57,1.07,1.30
26.828,-0.47,-0.52,1.10,1.30
26.838,-0.44,-0.41,1.38,1.50
26.849,-0.49,-0.70,1.22,1.49
26.859,-0.50,-0.92,1.06,1.48
26.868,-0.47,-0.50,1.03,1.24
26.878,-0.49,-0.54,1.08,1.30
26.888,-0.41,-0.46,1.35,1.48
26.899,-0.48,-0.77,1.28,1.57
26.908,-0.52,-0.88,1.02,1.44
26.918,-0.47,-0.62,1.15,1.39
26.928,-0.45,-0.47,1.24,1.40
26.938,-0.44,-0.56,1.29,1.47
26.948,-0.51,-0.78,1.16,1.49
26.958,-0.49,-0.73,1.20,1.49
26.968,-0.54,-0.56,1.08,1.33
26.978,-0.48,-0.55,1.23,1.43
26.988,-0.49,-0.61,1.38,1.58
26.998,-0.51,-0.82,1.23,1.56
27.008,-0.50,-0.79,1.17,1.49
27.018,-0.47,-0.61,1.13,1.37
27.028,-0.53,-0.60,1.20,1.44
27.038,-0.46,-0.61,1.44,1.62
27.048,-0.52,-0.81,1.26,1.58
27.058,-0.50,-0.74,1.15,1.45
27.068,-0.53,-0.56,1.09,1.34
27.078,-0.54,-0.60,1.22,1.46
27.088,-0.48,-0.65,1.27,1.51
27.098,-0.51,-0.87,1.28,1.63
27.108,-0.50,-0.80,1.18,1.51
27.118,-0.52,-0.62,1.17,1.42
27.128,-0.54,-0.57,1.33,1.55
27.138,-0.52,-0.68,1.33,1.58
27.148,-0.52,-0.91,1.38,1.73
27.158,-0.53,-0.73,1.02,1.36
27.168,-0.52,-0.68,1.10,1.39
27.178,-0.53,-0.54,1.42,1.61
27.188,-0.51,-0.74,1.41,1.68
27.198,-0.57,-1.02,1.14,1.63
27.208,-0.51,-0.73,1.14,1.44
27.218,-0.55,-0.60,1.23,1.47
27.228,-0.55,-0.55,1.25,1.48
27.238,-0.55,-0.74,1.27,1.57
27.248,-0.57,-1.06,1.21,1.71
27.258,-0.53,-0.69,1.19,1.48
27.268,-0.54,-0.60,1.28,1.51
27.278,-0.53,-0.61,1.43,1.65
27.288,-0.56,-0.78,1.25,1.58
27.298,-0.61,-0.98,1.04,1.56
27.308,-0.53,-0.66,1.17,1.44
27.318,-0.55,-0.60,1.26,1.49
27.328,-0.52,-0.65,1.35,1.59
27.338,-0.55,-0.85,1.35,1.69
27.348,-0.63,-0.98,1.24,1.70
27.358,-0.55,-0.64,1.16,1.43
27.368,-0.55,-0.67,1.36,1.61
27.378,-0.51,-0.56,1.50,1.68
27.388,-0.57,-0.91,1.30,1.69
27.398,-0.59,-0.95,1.14,1.59
27.408,-0.57,-0.61,1.19,1.46
27.418,-0.58,-0.69,1.34,1.61
27.428,-0.52,-0.62,1.41,1.63
27.438,-0.59,-0.88,1.31,1.69
27.448,-0.58,-0.84,1.29,1.65
27.458,-0.58,-0.64,1.06,1.37
27.467,-0.57,-0.69,1.26,1.55
27.478,-0.47,-0.65,1.58,1.77
27.488,-0.60,-0.99,1.28,1.72
27.498,-0.58,-0.84,1.17,1.55
27.508,-0.58,-0.65,1.21,1.49
27.518,-0.60,-0.72,1.43,1.71
27.528,-0.52,-0.64,1.44,1.66
27.538,-0.57,-0.98,1.23,1.67
27.547,-0.59,-0.70,1.21,1.51
27.557,-0.57,-0.62,1.25,1.51
27.567,-0.61,-0.69,1.35,1.63
27.577,-0.56,-0.75,1.53,1.79
27.587,-0.61,-1.06,1.28,1.77
27.597,-0.57,-0.74,1.28,1.58
27.607,-0.58,-0.58,1.21,1.47
27.617,-0.63,-0.71,1.40,1.69
27.627,-0.57,-0.75,1.36,1.66
27.638,-0.57,-0.95,1.31,1.72
27.647,-0.60,-0.72,1.26,1.57
27.657,-0.59,-0.64,1.31,1.57
27.667,-0.63,-0.64,1.38,1.65
27.677,-0.55,-0.92,1.62,1.94
27.687,-0.61,-0.99,1.29,1.74
27.697,-0.59,-0.74,1.20,1.53
27.707,-0.59,-0.56,1.34,1.57
27.717,-0.62,-0.66,1.38,1.65
27.727,-0.61,-0.93,1.43,1.81
27.737,-0.61,-1.00,1.36,1.80
27.747,-0.60,-0.80,1.26,1.61
27.757,-0.61,-0.53,1.42,1.63
27.767,-0.61,-0.59,1.33,1.58
27.777,-0.61,-0.90,1.43,1.79
27.787,-0.65,-1.01,1.41,1.85
27.797,-0.59,-0.81,1.18,1.55
27.807,-0.57,-0.62,1.42,1.65
27.817,-0.62,-0.63,1.53,1.77
27.827,-0.63,-0.98,1.45,1.86
27.837,-0.70,-1.00,1.31,1.79
27.847,-0.60,-0.67,1.16,1.46
27.857,-0.62,-0.67,1.39,1.66
27.867,-0.58,-0.53,1.55,1.74
27.877,-0.69,-0.93,1.30,1.74
27.887,-0.66,-1.17,1.36,1.91
27.897,-0.61,-0.63,1.28,1.55
27.907,-0.63,-0.74,1.46,1.75
27.917,-0.63,-0.64,1.55,1.79
27.927,-0.63,-0.99,1.41,1.84
27.937,-0.68,-0.99,1.18,1.68
27.947,-0.64,-0.64,1.25,1.54
27.957,-0.67,-0.69,1.40,1.70
27.967,-0.63,-0.72,1.49,1.78
27.977,-0.63,-1.04,1.49,1.93
27.987,-0.67,-0.92,1.34,1.76
27.997,-0.64,-0.76,1.30,1.63
28.007,-0.68,-0.70,1.46,1.75
28.017,-0.61,-0.80,1.48,1.79
28.027,-0.66,-0.92,1.42,1.82
28.037,-0.66,-0.89,1.36,1.75
28.047,-0.68,-0.70,1.33,1.65
28.057,-0.68,-0.77,1.53,1.84
28.067,-0.64,-0.77,1.44,1.76
28.077,-0.66,-1.05,1.52,1.96
28.087,-0.66,-0.77,1.37,1.71
28.097,-0.64,-0.73,1.31,1.63
28.107,-0.68,-0.74,1.43,1.75
28.117,-0.66,-0.81,1.63,1.94
28.127,-0.67,-0.98,1.55,1.96
28.136,-0.68,-0.83,1.25,1.65
28.147,-0.69,-0.74,1.31,1.66
28.156,-0.71,-0.71,1.52,1.82
28.167,-0.68,-0.93,1.54,1.92
28.176,-0.67,-1.11,1.45,1.95
28.186,-0.67,-0.77,1.29,1.64
28.196,-0.70,-0.69,1.34,1.66
28.206,-0.71,-0.71,1.56,1.85
28.217,-0.67,-0.95,1.47,1.88
28.226,-0.70,-1.16,1.56,2.07
28.236,-0.64,-0.69,1.32,1.63
28.246,-0.69,-0.68,1.31,1.63
28.257,-0.67,-0.67,1.68,1.93
28.267,-0.73,-0.89,1.56,1.94
28.277,-0.74,-1.20,1.45,2.02
28.286,-0.69,-0.73,1.28,1.62
28.296,-0.70,-0.78,1.50,1.83
28.306,-0.69,-0.59,1.61,1.85
28.316,-0.71,-1.00,1.43,1.88
28.326,-0.73,-1.14,1.38,1.93
28.336,-0.66,-0.72,1.44,1.74
28.346,-0.70,-0.68,1.45,1.75
28.356,-0.67,-0.68,1.53,1.80
28.366,-0.73,-1.00,1.51,1.95
28.376,-0.74,-1.08,1.54,2.02
28.386,-0.73,-0.79,1.35,1.72
28.396,-0.72,-0.79,1.43,1.79
28.406,-0.64,-0.61,1.66,1.88
28.416,-0.76,-1.06,1.51,2.00
28.426,-0.75,-1.01,1.43,1.91
28.436,-0.73,-0.82,1.45,1.82
28.446,-0.70,-0.76,1.44,1.78
28.456,-0.70,-0.70,1.71,1.97
28.466,-0.73,-1.03,1.62,2.05
28.476,-0.78,-1.02,1.38,1.88
28.486,-0.75,-0.83,1.40,1.79
28.496,-0.72,-0.79,1.61,1.93
28.506,-0.70,-0.73,1.65,1.93
28.516,-0.71,-1.00,1.61,2.03
28.526,-0.79,-0.91,1.45,1.88
28.536,-0.76,-0.82,1.39,1.79
28.546,-0.79,-0.75,1.54,1.89
28.556,-0.72,-0.82,1.62,1.95
28.566,-0.77,-1.10,1.57,2.06
28.576,-0.74,-0.93,1.46,1.89
28.586,-0.75,-0.74,1.35,1.71
28.596,-0.80,-0.85,1.58,1.97
28.606,-0.71,-0.80,1.66,1.97
28.616,-0.75,-1.16,1.55,2.07
28.626,-0.73,-0.83,1.38,1.76
28.636,-0.81,-0.72,1.32,1.71
28.646,-0.79,-0.78,1.57,1.93
28.656,-0.70,-0.86,1.53,1.89
28.666,-0.17,-1.19,0.36,1.26
28.676,-0.68,-0.63,1.20,1.52
28.686,-1.05,-0.82,2.12,2.50
28.696,-0.93,-0.85,2.19,2.53
28.706,-1.01,-1.03,1.75,2.27
28.716,-0.80,-1.20,1.43,2.03
28.726,-0.75,-0.85,1.47,1.86
28.736,-0.77,-0.74,1.53,1.86
28.745,-0.80,-0.83,1.68,2.04
28.755,-0.81,-1.03,1.67,2.12
28.766,-0.85,-1.21,1.52,2.12
28.776,-0.75,-0.87,1.42,1.82
28.785,-0.75,-0.74,1.54,1.86
28.796,-0.79,-0.74,1.56,1.90
28.806,-0.81,-1.09,1.54,2.05
28.816,-0.82,-1.19,1.44,2.04
28.825,-0.76,-0.85,1.40,1.80
28.836,-0.80,-0.73,1.64,1.97
28.846,-0.80,-0.86,1.62,2.00
28.856,-0.80,-1.16,1.55,2.09
28.866,-0.85,-1.03,1.46,1.97
28.876,-0.79,-0.86,1.43,1.84
28.885,-0.81,-0.82,1.54,1.92
28.895,-0.77,-0.80,1.68,2.02
28.905,-0.81,-1.15,1.56,2.11
28.915,-0.83,-1.13,1.59,2.12
28.926,-0.84,-0.86,1.48,1.90
28.935,-0.84,-0.83,1.48,1.90
28.945,-0.76,-0.79,1.71,2.03
28.955,-0.86,-1.13,1.54,2.09
28.965,-0.82,-1.15,1.55,2.10
28.975,-0.84,-0.84,1.48,1.90
28.985,-0.81,-0.95,1.66,2.07
28.995,-0.81,-0.91,1.78,2.16
29.005,-0.82,-1.17,1.71,2.23
29.015,-0.86,-1.09,1.45,2.01
29.025,-0.85,-0.86,1.34,1.80
29.035,-0.85,-0.78,1.56,1.94
29.045,-0.80,-0.91,1.74,2.12
29.055,-0.83,-1.21,1.63,2.19
29.065,-0.84,-1.08,1.44,1.99
29.075,-0.86,-0.88,1.48,1.93
29.085,-0.90,-0.83,1.66,2.06
29.095,-0.79,-1.02,1.80,2.21
29.105,-0.87,-1.14,1.62,2.17
29.115,-0.81,-0.98,1.48,1.95
29.125,-0.88,-0.84,1.45,1.89
29.135,-0.88,-0.93,1.69,2.12
29.145,-0.85,-1.04,1.82,2.26
29.155,-0.87,-1.30,1.64,2.26
29.165,-0.80,-0.95,1.57,2.00
29.175,-0.86,-0.74,1.52,1.90
29.185,-0.89,-0.94,1.72,2.15
29.195,-0.86,-1.00,1.78,2.22
29.205,-0.87,-1.31,1.63,2.26
29.215,-0.84,-0.96,1.55,2.01
29.225,-0.86,-0.83,1.63,2.02
29.235,-0.87,-0.94,1.66,2.09
29.245,-0.88,-1.13,1.71,2.23
29.255,-0.88,-1.31,1.79,2.38
29.265,-0.85,-0.97,1.47,1.95
29.275,-0.88,-0.77,1.57,1.96
29.285,-0.91,-0.78,1.75,2.12
29.295,-0.89,-1.19,1.68,2.25
29.305,-0.93,-1.24,1.76,2.35
29.315,-0.82,-1.08,1.67,2.15
29.325,-0.84,-0.88,1.66,2.05
29.335,-0.85,-0.91,1.79,2.18
29.345,-0.88,-1.06,1.75,2.22
29.355,-0.92,-1.28,1.61,2.25
29.365,-0.88,-0.96,1.51,2.00
29.375,-0.94,-0.85,1.66,2.09
29.385,-0.87,-0.94,1.74,2.16
29.395,-0.94,-1.21,1.71,2.30
29.405,-0.92,-1.20,1.70,2.28
29.415,-0.91,-1.05,1.42,1.98
29.425,-0.89,-1.00,1.72,2.17
29.435,-0.85,-0.84,1.84,2.20
29.444,-0.90,-1.32,1.65,2.29
29.455,-0.94,-1.13,1.52,2.11
29.465,-0.94,-0.95,1.65,2.12
29.475,-0.95,-0.98,1.54,2.06
29.484,-0.87,-0.95,1.95,2.34
29.495,-0.94,-1.14,1.74,2.28
29.504,-0.95,-1.27,1.62,2.27
29.514,-0.92,-0.95,1.65,2.12
29.524,-0.90,-1.04,1.79,2.25
29.534,-0.88,-1.05,1.84,2.30
29.544,-0.91,-1.16,1.79,2.32
29.554,-0.92,-1.18,1.44,2.08
29.565,-0.95,-0.89,1.50,1.99
29.574,-0.98,-0.96,1.76,2.23
29.584,-0.91,-1.07,1.78,2.27
29.594,-0.94,-1.32,1.75,2.39
29.604,-0.91,-1.12,1.67,2.21
29.614,-0.98,-1.04,1.58,2.13
29.624,-0.96,-1.00,1.69,2.18
29.634,-0.94,-1.08,1.74,2.26
29.644,-0.90,-1.29,1.78,2.38
29.654,-0.92,-1.04,1.55,2.09
29.664,-0.96,-1.04,1.50,2.06
29.674,-1.02,-0.94,1.78,2.25
29.684,-0.97,-1.17,1.90,2.43
29.694,-0.98,-1.46,1.78,2.50
29.704,-0.90,-1.07,1.69,2.19
29.714,-0.95,-0.94,1.51,2.02
29.724,-0.96,-0.96,1.72,2.19
29.734,-0.94,-1.11,1.72,2.26
29.744,-0.94,-1.46,1.75,2.47
29.754,-0.92,-0.99,1.57,2.07
29.764,-0.99,-1.02,1.78,2.28
29.774,-1.03,-0.90,1.78,2.25
29.784,-1.02,-1.26,1.75,2.39
29.794,-1.04,-1.43,1.81,2.53
29.804,-0.94,-1.01,1.60,2.12
29.814,-0.95,-0.96,1.72,2.19
29.824,-0.94,-0.96,1.81,2.25
29.834,-0.95,-1.23,1.79,2.37
29.844,-1.03,-1.42,1.70,2.45
29.854,-0.97,-1.11,1.61,2.18
29.864,-1.00,-0.98,1.80,2.28
29.874,-0.99,-0.97,1.89,2.34
29.884,-1.01,-1.28,1.82,2.45
29.894,-1.07,-1.37,1.64,2.39
29.904,-0.99,-1.07,1.63,2.19
29.914,-0.97,-1.05,1.81,2.30
29.924,-0.95,-0.99,1.84,2.29
29.934,-1.02,-1.32,1.80,2.45
29.944,-1.04,-1.39,1.71,2.44
29.954,-1.05,-1.03,1.54,2.13
29.964,-1.01,-1.11,1.74,2.30
29.974,-0.99,-1.03,1.90,2.38
29.984,-1.00,-1.34,1.79,2.45
29.994,-1.03,-1.32,1.61,2.32
30.004,-1.02,-1.09,1.61,2.20
30.014,-1.03,-1.06,1.72,2.27
30.024,-0.98,-1.10,1.89,2.40
30.034,-1.01,-1.34,1.73,2.41
30.044,-1.05,-1.28,1.59,2.30
30.054,-1.08,-1.08,1.61,2.22
30.064,-1.04,-1.11,1.79,2.35
30.074,-1.00,-1.14,1.82,2.37
30.084,-1.00,-1.41,1.88,2.56
30.094,-1.04,-1.17,1.65,2.27
30.104,-1.05,-1.11,1.53,2.16
30.113,-1.02,-1.08,1.86,2.38
30.124,-1.03,-1.16,1.91,2.46
30.133,-1.05,-1.46,1.79,2.54
30.143,-1.05,-1.11,1.71,2.29
30.153,-1.06,-1.11,1.74,2.32
30.164,-1.09,-1.16,1.81,2.41
30.174,-1.03,-1.26,1.68,2.34
30.183,-1.03,-1.46,1.90,2.61
30.193,-1.01,-1.22,1.74,2.35
30.203,-1.06,-1.04,1.61,2.19
30.214,-1.09,-1.11,1.89,2.45
30.223,-1.07,-1.31,1.93,2.57
30.233,-1.11,-1.48,1.71,2.52
30.243,-1.03,-1.22,1.75,2.37
30.253,-1.05,-1.03,1.68,2.23
30.263,-1.05,-1.16,1.86,2.43
30.273,-1.06,-1.22,1.85,2.46
30.283,-1.11,-1.55,1.79,2.62
30.293,-1.04,-1.11,1.77,2.33
30.303,-1.09,-1.11,1.75,2.34
30.313,-1.03,-1.13,1.97,2.49
30.324,-1.11,-1.32,1.77,2.48
30.333,-1.11,-1.58,1.78,2.62
30.343,-1.02,-1.11,1.69,2.26
30.353,-1.05,-1.22,1.84,2.45
30.363,-1.05,-1.08,2.01,2.51
30.373,-1.11,-1.35,1.86,2.55
30.383,-1.15,-1.60,1.73,2.62
30.393,-1.09,-1.13,1.75,2.36
30.403,-1.07,-1.21,1.78,2.40
30.413,-1.06,-1.10,1.94,2.47
30.423,-1.07,-1.39,1.87,2.57
30.433,-1.13,-1.54,1.80,2.62
30.443,-1.09,-1.23,1.71,2.37
30.453,-1.09,-1.18,1.98,2.55
30.463,-1.08,-1.22,1.86,2.48
30.473,-1.10,-1.42,1.85,2.58
30.483,-1.16,-1.46,1.77,2.56
30.493,-1.12,-1.32,1.67,2.40
30.503,-1.11,-1.24,1.79,2.45
30.513,-1.06,-1.18,2.08,2.62
30.523,-1.11,-1.46,1.85,2.60
30.533,-1.13,-1.46,1.81,2.58
30.543,-1.16,-1.29,1.68,2.41
30.553,-1.14,-1.32,1.79,2.50
30.563,-1.08,-1.22,1.97,2.56
30.573,-1.12,-1.54,1.84,2.65
30.583,-1.11,-1.36,1.82,2.53
30.593,-1.20,-1.34,1.66,2.45
30.603,-1.15,-1.21,1.88,2.52
30.613,-1.13,-1.31,2.04,2.67
30.623,-1.08,-1.60,1.91,2.72
30.633,-1.19,-1.41,1.74,2.53
30.643,-1.16,-1.31,1.70,2.44
30.653,-1.18,-1.27,1.89,2.57
30.663,-1.11,-1.35,2.08,2.72
30.673,-1.18,-1.66,1.87,2.77
30.683,-1.11,-1.34,1.80,2.51
30.693,-1.14,-1.23,1.76,2.43
30.703,-1.20,-1.37,1.93,2.65
30.713,-1.12,-1.38,1.87,2.58
30.723,-1.20,-1.64,1.84,2.74
30.733,-1.10,-1.43,1.80,2.55
30.743,-1.20,-1.34,1.75,2.51
30.753,-1.22,-1.28,1.94,2.62
30.763,-1.17,-1.51,1.97,2.74
30.772,-1.22,-1.65,1.82,2.74
30.783,-1.14,-1.36,1.79,2.52
30.793,-1.15,-1.37,1.94,2.64
30.802,-1.21,-1.29,1.89,2.58
30.812,-1.17,-1.57,1.90,2.73
30.822,-1.21,-1.65,1.88,2.77
30.832,-1.17,-1.41,1.86,2.61
30.842,-1.17,-1.28,1.88,2.56
30.852,-1.18,-1.38,2.02,2.72
30.862,-1.21,-1.52,1.90,2.71
30.873,-1.27,-1.70,1.81,2.79
30.882,-1.17,-1.44,1.78,2.57
30.892,-1.19,-1.31,1.92,2.61
30.902,-1.19,-1.36,2.02,2.71
30.912,-1.20,-1.62,1.93,2.79
30.922,-1.26,-1.65,1.81,2.76
30.932,-1.21,-1.47,1.73,2.58
30.942,-1.19,-1.33,1.88,2.59
30.952,-1.18,-1.36,1.92,2.63
30.962,-1.24,-1.68,1.92,2.83
30.972,-1.27,-1.72,1.89,2.85
30.982,-1.24,-1.46,1.60,2.50
30.992,-1.18,-1.46,2.08,2.80
31.002,-1.21,-1.30,2.04,2.70
31.012,-1.22,-1.77,1.96,2.91
31.022,-1.25,-1.58,1.86,2.74
31.032,-1.25,-1.53,1.65,2.58
31.042,-1.24,-1.48,2.00,2.79
31.052,-1.17,-1.35,2.24,2.87
31.062,-1.28,-1.75,1.86,2.86
31.072,-1.25,-1.62,1.90,2.79
31.082,-1.23,-1.46,1.84,2.66
31.092,-1.27,-1.51,1.96,2.79
31.102,-1.18,-1.36,2.07,2.74
31.112,-1.25,-1.74,1.95,2.89
31.122,-1.26,-1.57,1.81,2.71
31.132,-1.26,-1.44,1.85,2.67
31.142,-1.30,-1.54,1.87,2.74
31.152,-1.20,-1.48,2.08,2.82
31.162,-1.24,-1.75,1.95,2.90
31.172,-1.21,-1.63,1.81,2.72
31.182,-1.27,-1.47,1.86,2.69
31.192,-1.30,-1.49,2.00,2.81
31.202,-1.23,-1.58,2.07,2.87
31.212,-1.25,-1.73,1.98,2.91
31.222,-1.24,-1.53,1.89,2.73
31.232,-1.29,-1.40,1.80,2.62
31.242,-1.26,-1.47,2.03,2.80
31.252,-1.25,-1.60,2.04,2.88
31.262,-1.27,-1.89,2.01,3.03
31.272,-1.24,-1.58,1.80,2.70
31.282,-1.27,-1.45,1.94,2.74
31.292,-1.29,-1.44,2.05,2.82
31.302,-1.28,-1.70,2.04,2.95
31.312,-1.31,-1.84,2.02,3.03
31.322,-1.24,-1.55,1.81,2.68
31.332,-1.29,-1.50,1.94,2.77
31.342,-1.28,-1.34,2.12,2.82
31.352,-1.34,-1.81,1.94,2.97
31.362,-1.29,-1.80,2.02,3.00
31.372,-1.28,-1.59,1.84,2.75
31.382,-1.24,-1.44,1.99,2.75
31.392,-1.01,-0.67,2.04,2.38
31.402,-1.44,-2.17,1.93,3.24
31.412,-1.52,-2.07,1.99,3.25
31.422,-1.23,-1.63,1.84,2.75
31.431,-1.30,-1.49,2.03,2.83
31.441,-1.25,-1.47,2.17,2.90
31.452,-1.29,-1.71,2.04,2.96
31.461,-1.37,-1.96,1.90,3.05
31.471,-1.30,-1.45,1.87,2.70
31.481,-1.32,-1.46,2.04,2.83
31.491,-1.30,-1.48,2.11,2.88
31.501,-1.30,-1.77,2.06,3.01
31.512,-1.35,-1.83,1.85,2.93
31.521,-1.34,-1.55,1.78,2.72
31.531,-1.31,-1.47,2.10,2.88
31.541,-1.27,-1.50,2.18,2.93
31.551,-1.32,-1.80,2.13,3.08
31.562,-1.35,-1.78,1.89,2.93
31.571,-1.36,-1.61,1.87,2.82
31.581,-1.33,-1.46,2.19,2.94
31.591,-1.25,-1.59,2.17,2.97
31.602,-1.35,-1.80,1.98,3.00
31.611,-1.37,-1.71,2.01,2.97
31.621,-1.38,-1.58,1.80,2.77
31.631,-1.37,-1.61,2.11,2.98
31.641,-1.29,-1.58,2.29,3.06
31.651,-1.35,-1.87,1.93,3.01
31.661,-1.35,-1.67,1.88,2.86
31.671,-1.39,-1.46,1.85,2.73
31.681,-1.37,-1.70,2.02,2.98
31.691,-1.32,-1.57,2.26,3.06
31.701,-1.34,-1.89,2.12,3.14
31.711,-1.35,-1.69,1.99,2.94
31.721,-1.39,-1.46,1.80,2.70
31.731,-1.40,-1.60,1.96,2.90
31.741,-1.36,-1.61,2.07,2.95
31.751,-1.30,-1.90,2.11,3.12
31.761,-1.35,-1.64,1.94,2.88
31.771,-1.37,-1.58,2.07,2.94
31.781,-1.40,-1.48,2.03,2.88
31.791,-1.39,-1.71,2.08,3.03
31.801,-1.41,-1.86,2.06,3.11
31.811,-1.32,-1.60,1.96,2.85
31.821,-1.36,-0.75,2.00,2.53
31.831,-1.45,-2.25,2.02,3.35
31.841,-1.38,-1.85,2.13,3.14
31.851,-1.44,-2.01,1.92,3.13
31.861,-1.34,-1.51,1.81,2.71
31.871,-1.38,-1.50,1.96,2.83
31.881,-1.39,-1.54,2.11,2.96
31.891,-1.39,-1.79,2.01,3.04
31.901,-1.44,-2.02,2.06,3.23
31.911,-1.35,-1.55,1.96,2.84
31.921,-1.39,-1.60,1.97,2.90
31.931,-1.35,-1.47,2.27,3.03
31.941,-1.44,-1.74,2.08,3.06
31.951,-1.44,-1.98,1.91,3.11
31.961,-1.39,-1.56,1.96,2.87
31.971,-1.39,-1.54,2.12,2.96
31.981,-1.39,-1.52,2.10,2.94
31.991,-1.44,-1.85,2.04,3.11
32.001,-1.43,-1.89,1.94,3.06
32.011,-1.43,-1.61,1.85,2.84
32.021,-1.36,-1.54,2.09,2.92
32.031,-1.39,-1.57,2.17,3.02
32.041,-1.43,-1.84,2.11,3.14
32.051,-1.48,-1.87,1.94,3.07
32.061,-1.44,-1.63,1.90,2.89
32.071,-1.42,-1.57,2.10,2.98
32.081,-1.37,-1.51,2.27,3.05
32.090,-1.40,-1.83,2.05,3.08
32.101,-1.45,-1.82,1.88,2.99
32.111,-1.45,-1.61,1.84,2.84
32.120,-1.42,-1.57,2.10,2.98
32.131,-1.37,-1.57,2.28,3.09
32.141,-1.44,-1.87,2.15,3.19
32.150,-1.47,-1.82,2.08,3.13
32.160,-1.48,-1.63,1.85,2.87
32.170,-1.45,-1.63,2.05,3.00
32.180,-1.37,-1.59,2.32,3.12
32.191,-1.44,-1.87,2.10,3.16
32.200,-1.41,-1.76,1.89,2.94
32.210,-1.48,-1.55,2.01,2.94
32.220,-1.48,-1.57,2.06,2.98
32.230,-1.45,-1.72,2.10,3.08
32.240,-1.45,-1.83,2.17,3.18
32.250,-1.41,-1.73,2.01,3.00
32.260,-1.48,-1.62,1.88,2.89
32.270,-1.46,-1.64,2.22,3.12
32.280,-1.43,-1.71,2.20,3.14
32.290,-1.46,-1.94,2.10,3.21
32.300,-1.42,-1.59,2.05,2.96
32.310,-1.50,-1.61,1.96,2.95
32.320,-1.52,-1.63,2.11,3.07
32.330,-1.41,-1.76,2.22,3.17
32.340,-1.50,-1.99,2.05,3.23
32.350,-1.41,-1.63,1.99,2.94
32.360,-1.48,-1.52,2.05,2.95
32.370,-1.49,-1.60,2.12,3.05
32.380,-1.49,-1.81,2.17,3.19
32.390,-1.51,-1.98,2.10,3.26
32.400,-1.42,-1.67,1.95,2.93
32.410,-1.47,-1.55,2.11,3.00
32.420,-1.47,-1.59,2.23,3.11
32.430,-1.49,-1.85,2.17,3.22
32.440,-1.50,-1.97,2.12,3.26
32.450,-1.48,-1.67,2.00,2.99
32.460,-1.46,-1.49,2.18,3.02
32.470,-1.50,-1.60,2.37,3.23
32.480,-1.50,-1.92,2.15,3.25
32.490,-1.50,-1.97,2.12,3.26
32.500,-1.48,-1.61,1.99,2.96
32.510,-1.48,-1.58,2.14,3.04
32.520,-1.45,-1.52,2.30,3.11
32.530,-1.54,-1.96,2.19,3.32
32.540,-1.53,-1.93,2.08,3.22
32.550,-1.54,-1.70,1.98,3.03
32.560,-1.45,-1.62,2.16,3.07
32.570,-1.46,-1.54,2.33,3.15
32.580,-1.51,-1.91,2.06,3.19
32.590,-1.54,-1.91,2.11,3.23
32.600,-1.52,-1.67,1.94,2.97
32.610,-1.50,-1.74,2.27,3.23
32.620,-1.47,-1.58,2.42,3.24
32.630,-1.52,-1.93,2.15,3.26
32.640,-1.54,-1.92,2.16,3.27
32.650,-1.54,-1.60,1.96,2.96
32.660,-1.52,-1.74,2.12,3.13
32.670,-1.45,-1.61,2.43,3.26
32.680,-1.47,-2.01,2.31,3.40
32.690,-1.55,-1.82,2.08,3.17
32.700,-1.59,-1.75,2.01,3.10
32.710,-1.55,-1.63,2.19,3.14
32.720,-1.50,-1.72,2.36,3.28
32.730,-1.49,-1.93,2.21,3.29
32.739,-1.55,-1.86,1.96,3.12
32.750,-1.53,-1.73,2.08,3.11
32.760,-1.57,-1.65,2.28,3.22
32.770,-1.50,-1.82,2.36,3.33
32.779,-1.55,-1.97,2.29,3.40
32.789,-1.51,-1.82,2.14,3.18
32.800,-1.55,-1.71,2.09,3.12
32.809,-1.58,-1.64,2.19,3.16
32.819,-1.53,-1.84,2.42,3.40
32.830,-1.55,-2.03,2.26,3.42
32.839,-1.50,-1.79,2.12,3.16
32.849,-1.56,-1.65,2.17,3.14
32.859,-1.58,-1.76,2.32,3.31
32.869,-1.56,-1.83,2.28,3.32
32.879,-1.54,-2.10,2.32,3.49
32.889,-1.51,-1.79,2.20,3.21
32.899,-1.58,-1.69,2.24,3.22
32.909,-1.54,-1.64,2.34,3.25
32.919,-1.58,-1.91,2.28,3.37
32.929,-1.57,-2.08,2.32,3.49
32.939,-1.53,-1.80,2.24,3.25
32.949,-1.52,-1.69,2.16,3.13
32.959,-1.54,-1.73,2.40,3.34
32.969,-1.58,-1.90,2.32,3.38
32.979,-1.62,-2.09,2.26,3.48
32.989,-1.56,-1.75,2.19,3.21
32.999,-1.55,-1.74,2.32,3.29
33.009,-1.56,-1.69,2.43,3.34
33.019,-1.59,-1.96,2.39,3.48
33.029,-1.58,-2.14,2.27,3.50
33.039,-1.54,-1.89,2.06,3.19
33.049,-1.54,-1.78,2.31,3.29
33.059,-1.54,-1.68,2.41,3.32
33.069,-1.61,-2.00,2.26,3.42
33.079,-1.61,-2.08,2.27,3.47
33.089,-1.63,-1.86,2.12,3.26
33.099,-1.57,-1.84,2.31,3.35
33.109,-1.54,-1.75,2.45,3.38
33.119,-1.58,-2.07,2.37,3.52
33.129,-1.62,-2.13,2.20,3.46
33.139,-1.62,-1.91,2.08,3.26
33.149,-1.59,-1.79,2.47,3.44
33.159,-1.59,-1.80,2.47,3.45
33.169,-1.60,-2.08,2.36,3.53
33.179,-1.64,-2.04,2.29,3.48
33.189,-1.65,-1.95,2.08,3.29
33.199,-1.63,-1.87,2.29,3.37
33.209,-1.56,-1.80,2.51,3.46
33.219,-1.60,-2.10,2.31,3.51
33.229,-1.63,-1.99,2.27,3.43
33.239,-1.64,-1.87,2.21,3.32
33.249,-1.65,-1.94,2.35,3.46
33.259,-1.59,-1.91,2.37,3.44
33.269,-1.62,-2.17,2.37,3.60
33.280,-1.61,-2.05,2.12,3.36
33.289,-1.64,-1.82,2.12,3.24
33.299,-1.71,-1.94,2.22,3.41
33.309,-1.60,-1.99,2.44,3.54
33.319,-1.64,-2.18,2.41,3.64
33.329,-1.58,-2.01,2.20,3.37
33.339,-1.68,-1.89,2.21,3.36
33.349,-1.68,-1.88,2.44,3.51
33.359,-1.64,-2.11,2.36,3.56
33.369,-1.64,-2.28,2.41,3.70
33.379,-1.61,-1.94,2.22,3.36
33.389,-1.68,-1.90,2.20,3.36
33.399,-1.66,-1.85,2.36,3.43
33.409,-1.67,-2.09,2.35,3.56
33.419,-1.68,-2.31,2.34,3.69
33.429,-1.61,-2.03,2.28,3.45
33.438,-1.63,-1.94,2.29,3.41
33.448,-1.66,-1.85,2.38,3.44
33.459,-1.69,-2.13,2.35,3.59
33.468,-1.69,-2.31,2.37,3.72
33.478,-1.61,-1.96,2.32,3.44
33.488,-1.63,-1.97,2.26,3.41
33.499,-1.65,-1.92,2.51,3.57
33.509,-1.70,-2.11,2.39,3.61
33.518,-1.73,-2.36,2.27,3.70
33.528,-1.65,-2.00,2.17,3.38
33.539,-1.63,-1.91,2.35,3.44
33.548,-1.66,-1.88,2.46,3.51
33.558,-1.66,-2.19,2.49,3.71
33.568,-1.70,-2.34,2.29,3.69
33.578,-1.68,-2.07,2.25,3.49
33.588,-1.65,-1.91,2.57,3.60
33.598,-1.66,-2.02,2.56,3.66
33.608,-1.68,-2.22,2.35,3.64
33.618,-1.76,-2.28,2.33,3.70
33.628,-1.70,-2.03,2.27,3.49
33.638,-1.67,-2.02,2.39,3.55
33.648,-1.66,-1.93,2.55,3.60
33.658,-1.72,-2.32,2.41,3.76
33.668,-1.73,-2.33,2.37,3.75
33.678,-1.70,-2.09,2.28,3.53
33.688,-1.69,-2.14,2.42,3.65
33.698,-1.68,-1.93,2.57,3.63
33.708,-1.70,-2.28,2.45,3.75
33.718,-1.73,-2.24,2.26,3.62
33.728,-1.75,-2.08,2.28,3.54
33.738,-1.74,-2.11,2.41,3.64
33.748,-1.66,-2.10,2.48,3.65
33.758,-1.67,-2.37,2.54,3.85
33.768,-1.73,-2.21,2.41,3.69
33.778,-1.76,-2.14,2.17,3.52
33.788,-1.74,-2.04,2.48,3.66
33.798,-1.69,-2.08,2.67,3.79
33.808,-1.72,-2.34,2.47,3.81
33.818,-1.75,-2.20,2.29,3.63
33.828,-1.73,-2.11,2.28,3.55
33.838,-1.77,-2.05,2.50,3.69
33.848,-1.68,-2.23,2.62,3.83
33.858,-1.72,-2.50,2.56,3.97
33.868,-1.72,-2.21,2.41,3.70
33.878,-1.74,-2.06,2.27,3.53
33.888,-1.80,-2.06,2.46,3.68
33.898,-1.74,-2.19,2.49,3.74
33.908,-1.76,-2.48,2.48,3.92
33.918,-1.69,-2.14,2.41,3.64
33.928,-1.74,-2.16,2.31,3.61
33.938,-1.79,-2.09,2.54,3.74
33.948,-1.74,-2.22,2.49,3.76
33.958,-1.81,-2.54,2.29,3.87
33.968,-1.72,-2.12,2.39,3.62
33.978,-1.72,-2.16,2.44,3.69
33.988,-1.77,-2.10,2.51,3.72
33.998,-1.74,-2.30,2.47,3.80
34.008,-1.81,-2.53,2.44,3.95
34.018,-1.76,-2.12,2.36,3.63
34.028,-1.73,-2.11,2.45,3.67
34.038,-1.77,-2.06,2.42,3.64
34.048,-1.78,-2.34,2.47,3.84
34.057,-1.83,-2.52,2.45,3.96
34.068,-1.73,-2.22,2.32,3.64
34.078,-1.74,-2.13,2.42,3.67
34.088,-1.75,-2.03,2.61,3.74
34.097,-1.83,-2.31,2.44,3.83
34.107,-1.82,-2.47,2.38,3.88
34.117,-1.79,-2.15,2.43,3.71
34.128,-1.75,-2.17,2.41,3.69
34.138,-1.77,-2.10,2.54,3.74
34.147,-1.77,-2.35,2.54,3.88
34.157,-1.86,-2.52,2.30,3.89
34.167,-1.78,-2.25,2.29,3.67
34.177,-1.76,-2.15,2.50,3.74
34.187,-1.74,-2.21,2.61,3.84
34.197,-1.80,-2.27,2.44,3.79
34.207,-1.84,-2.47,2.33,3.86
34.217,-1.84,-2.20,2.31,3.68
34.227,-1.79,-2.21,2.63,3.87
34.237,-1.75,-2.13,2.62,3.80
34.247,-1.79,-2.45,2.51,3.94
34.257,-1.82,-2.38,2.42,3.85
34.267,-1.83,-2.26,2.31,3.71
34.277,-1.80,-2.26,2.47,3.80
34.287,-1.75,-2.13,2.63,3.81
34.298,-1.83,-2.49,2.51,3.98
34.307,-1.83,-2.32,2.43,3.82
34.317,-1.86,-2.20,2.31,3.70
34.327,-1.86,-2.29,2.44,3.83
34.337,-1.78,-2.22,2.67,3.90
34.347,-1.81,-2.55,2.46,3.98
34.357,-1.77,-2.28,2.33,3.70
34.367,-1.86,-2.22,2.40,3.76
34.377,-1.86,-2.22,2.48,3.81
34.387,-1.82,-2.25,2.63,3.91
34.397,-1.81,-2.53,2.63,4.08
34.407,-1.82,-2.27,2.44,3.80
34.417,-1.87,-2.19,2.35,3.72
34.427,-1.86,-2.23,2.49,3.82
34.437,-1.80,-2.39,2.56,3.94
34.447,-1.80,-2.55,2.56,4.03
34.457,-1.80,-2.34,2.43,3.82
34.467,-1.84,-2.21,2.41,3.75
34.477,-1.88,-2.19,2.44,3.78
34.487,-1.87,-2.38,2.55,3.96
34.497,-1.88,-2.53,2.55,4.06
34.507,-1.80,-2.28,2.38,3.76
34.517,-1.82,-2.23,2.45,3.79
34.527,-1.83,-2.18,2.56,3.83
34.537,-1.87,-2.47,2.52,3.99
34.547,-1.87,-2.57,2.57,4.09
34.557,-1.82,-2.32,2.34,3.77
34.567,-1.85,-2.18,2.43,3.75
34.577,-1.84,-2.13,2.64,3.85
34.587,-1.87,-2.47,2.52,3.99
34.597,-1.90,-2.64,2.50,4.10
34.607,-1.84,-2.29,2.40,3.79
34.617,-1.84,-2.26,2.52,3.85
34.627,-1.86,-2.14,2.61,3.86
34.637,-1.85,-2.45,2.60,4.02
34.647,-1.95,-2.57,2.36,4.00
34.657,-1.83,-2.32,2.30,3.75
34.667,-1.87,-2.18,2.40,3.74
34.677,-1.81,-2.19,2.71,3.92
34.687,-1.89,-2.48,2.48,3.99
34.697,-1.92,-2.61,2.38,4.02
34.707,-1.91,-2.30,2.34,3.80
34.717,-1.86,-2.25,2.50,3.84
34.727,-1.82,-2.16,2.65,3.87
34.737,-1.87,-2.50,2.56,4.03
34.747,-1.94,-2.54,2.31,3.94
34.757,-1.91,-2.31,2.36,3.82
34.767,-1.88,-2.28,2.57,3.92
34.777,-1.82,-2.23,2.75,3.98
34.786,-1.88,-2.52,2.60,4.08
34.797,-1.92,-2.53,2.41,3.99
34.806,-1.95,-2.30,2.21,3.74
34.816,-1.89,-2.25,2.57,3.90
34.826,-1.86,-2.28,2.71,4.00
34.836,-1.87,-2.63,2.63,4.17
34.846,-1.93,-2.39,2.44,3.92
34.856,-1.94,-2.39,2.36,3.88
34.866,-1.92,-2.26,2.63,3.97
34.876,-1.84,-2.35,2.67,4.00
34.886,-1.89,-2.63,2.56,4.13
34.896,-1.90,-2.39,2.48,3.93
34.906,-1.94,-2.26,2.28,3.75
34.916,-1.94,-2.35,2.64,4.04
34.926,-1.88,-2.33,2.69,4.03
34.936,-1.92,-2.70,2.61,4.22
34.946,-1.87,-2.39,2.48,3.92
34.956,-1.89,-2.29,2.46,3.85
34.966,-1.97,-2.27,2.56,3.95
34.976,-1.90,-2.40,2.67,4.06
34.986,-1.90,-2.65,2.58,4.16
34.996,-1.91,-2.40,2.42,3.91
35.006,-1.91,-2.28,2.39,3.82
35.016,-1.97,-2.28,2.51,3.92
35.026,-1.91,-2.48,2.60,4.07
35.036,-1.92,-2.77,2.53,4.21
35.046,-1.89,-2.40,2.44,3.91
35.056,-1.89,-2.28,2.43,3.83
35.066,-1.97,-2.34,2.58,4.00
35.076,-1.94,-2.49,2.68,4.14
35.086,-1.96,-2.73,2.49,4.18
35.096,-1.91,-2.41,2.38,3.89
35.106,-1.90,-2.24,2.61,3.93
35.116,-1.93,-2.32,2.62,4.00
35.126,-1.97,-2.56,2.59,4.14
35.136,-1.98,-2.65,2.56,4.18
35.146,-1.95,-2.50,2.38,3.97
35.156,-1.91,-2.23,2.64,3.95
35.166,-1.92,-2.23,2.62,3.93
35.176,-1.92,-2.55,2.54,4.08
35.186,-2.00,-2.62,2.56,4.17
35.196,-1.94,-2.46,2.35,3.91
35.206,-1.94,-2.28,2.51,3.91
35.216,-1.88,-2.26,2.81,4.07
35.226,-1.99,-2.62,2.56,4.17
35.236,-2.01,-2.66,2.43,4.13
35.246,-1.93,-2.38,2.45,3.93
35.256,-1.96,-2.32,2.53,3.96
35.266,-1.91,-2.26,2.66,3.98
35.276,-1.98,-2.58,2.60,4.16
35.286,-2.02,-2.66,2.39,4.11
35.296,-1.96,-2.44,2.36,3.92
35.306,-1.97,-2.36,2.50,3.97
35.316,-1.90,-2.31,2.74,4.06
35.326,-1.96,-2.61,2.64,4.20
35.336,-1.99,-2.65,2.42,4.10
35.346,-2.01,-2.50,2.42,4.01
35.356,-2.02,-2.36,2.67,4.10
35.365,-1.93,-2.39,2.61,4.03
35.376,-1.97,-2.66,2.58,4.20
35.385,-2.02,-2.55,2.46,4.08
35.396,-1.99,-2.43,2.29,3.89
35.405,-2.01,-2.37,2.45,3.96
35.415,-1.91,-2.44,2.77,4.16
35.425,-1.98,-2.71,2.67,4.29
35.435,-1.97,-2.56,2.57,4.13
35.445,-2.00,-2.51,2.35,3.98
35.455,-2.02,-2.43,2.49,4.02
35.466,-1.97,-2.42,2.70,4.12
35.475,-1.97,-2.70,2.57,4.22
35.486,-1.97,-2.51,2.40,3.99
35.495,-1.98,-2.38,2.40,3.92
35.506,-2.08,-2.38,2.45,4.00
35.515,-2.02,-2.55,2.69,4.22
35.526,-2.01,-2.79,2.75,4.41
35.535,-1.95,-2.62,2.45,4.08
35.545,-2.00,-2.44,2.42,3.98
35.555,-2.02,-2.34,2.62,4.05
35.565,-2.00,-2.55,2.52,4.11
35.575,-2.03,-2.73,2.61,4.28
35.585,-2.01,-2.56,2.54,4.12
35.595,-2.02,-2.41,2.33,3.92
35.605,-2.05,-2.39,2.57,4.06
35.615,-2.02,-2.57,2.63,4.20
35.625,-2.05,-2.93,2.49,4.35
35.635,-1.98,-2.60,2.46,4.08
35.645,-2.01,-2.40,2.52,4.02
35.655,-2.01,-2.44,2.51,4.04
35.665,-2.06,-2.54,2.57,4.16
35.675,-2.11,-2.82,2.58,4.36
35.685,-2.00,-2.56,2.39,4.03
35.695,-2.03,-2.39,2.49,4.01
35.705,-2.06,-2.40,2.56,4.06
35.715,-2.03,-2.65,2.60,4.23
35.725,-2.08,-2.82,2.44,4.27
35.735,-1.99,-2.63,2.44,4.10
35.745,-2.01,-2.41,2.46,3.99
35.755,-2.01,-2.35,2.55,4.01
35.765,-2.07,-2.61,2.56,4.20
35.775,-2.10,-2.78,2.48,4.28
35.785,-2.12,-2.63,2.24,4.05
35.795,-2.02,-2.44,2.52,4.05
35.805,-2.02,-2.44,2.67,4.15
35.815,-2.07,-2.69,2.58,4.26
35.825,-2.10,-2.79,2.38,4.23
35.835,-2.05,-2.59,2.25,3.99
35.845,-2.04,-2.45,2.55,4.09
35.855,-2.01,-2.40,2.66,4.10
35.865,-2.08,-2.76,2.55,4.29
35.875,-2.11,-2.79,2.49,4.30
35.885,-2.12,-2.58,2.34,4.08
35.895,-2.12,-2.56,2.56,4.19
35.905,-2.02,-2.49,2.77,4.23
35.915,-2.05,-2.78,2.59,4.31
35.925,-2.07,-2.69,2.49,4.21
35.935,-2.11,-2.53,2.33,4.04
35.945,-2.11,-2.58,2.48,4.15
35.955,-2.06,-2.44,2.64,4.15
35.965,-2.10,-2.89,2.58,4.41
35.975,-2.10,-2.66,2.43,4.17
35.985,-2.12,-2.59,2.43,4.14
35.995,-2.11,-2.53,2.49,4.13
36.005,-2.07,-2.51,2.60,4.16
36.015,-2.07,-2.87,2.61,4.40
36.025,-2.05,-2.61,2.50,4.16
36.035,-2.10,-2.67,2.30,4.10
36.045,-2.13,-2.55,2.61,4.23
36.055,-2.08,-2.61,2.67,4.27
36.065,-2.11,-2.92,2.56,4.42
36.074,-2.10,-2.65,2.50,4.20
36.085,-2.11,-2.50,2.34,4.02
36.094,-2.15,-2.54,2.52,4.18
36.105,-2.07,-2.66,2.77,4.37
36.114,-2.12,-2.97,2.52,4.43
36.124,-2.09,-2.71,2.41,4.19
36.135,-2.10,-2.46,2.55,4.12
36.145,-2.14,-2.56,2.50,4.17
36.155,-2.10,-2.75,2.61,4.34
36.164,-2.14,-2.91,2.66,4.49
36.174,-2.10,-2.73,2.38,4.19
36.184,-2.09,-2.48,2.62,4.17
36.194,-2.10,-2.54,2.64,4.23
36.204,-2.12,-2.83,2.50,4.33
36.214,-2.16,-2.91,2.56,4.44
36.224,-2.05,-2.71,2.57,4.26
36.234,-2.10,-2.55,2.54,4.17
36.244,-2.09,-2.53,2.83,4.33
36.254,-2.20,-2.78,2.57,4.38
36.264,-2.18,-3.02,2.52,4.50
36.274,-2.12,-2.66,2.47,4.20
36.285,-2.08,-2.67,2.65,4.30
36.294,-2.08,-2.53,2.76,4.28
36.304,-2.12,-2.84,2.65,4.42
36.314,-2.19,-2.90,2.56,4.44
36.324,-2.13,-2.73,2.59,4.32
36.334,-2.12,-2.59,2.60,4.24
36.344,-2.06,-2.64,2.83,4.38
36.354,-2.15,-2.84,2.74,4.50
36.364,-2.19,-2.94,2.59,4.49
36.374,-2.15,-2.73,2.49,4.27
36.384,-2.12,-2.64,2.68,4.32
36.394,-2.04,-2.59,2.91,4.40
36.404,-2.12,-2.85,2.79,4.51
36.414,-2.20,-2.91,2.46,4.40
36.424,-2.15,-2.70,2.52,4.27
36.434,-2.16,-2.71,2.76,4.43
36.444,-2.09,-2.65,2.87,4.43
36.454,-2.14,-2.97,2.79,4.60
36.464,-2.15,-2.86,2.54,4.39
36.474,-2.17,-2.73,2.51,4.29
36.484,-2.17,-2.64,2.69,4.35
36.494,-2.10,-2.71,2.89,4.49
36.504,-2.13,-3.05,2.82,4.67
36.514,-2.16,-2.86,2.56,4.41
36.524,-2.20,-2.73,2.61,4.37
36.534,-2.15,-2.64,2.74,4.37
36.544,-2.16,-2.85,2.93,4.62
36.554,-2.10,-2.97,2.88,4.64
36.564,-2.14,-2.87,2.62,4.43
36.574,-2.17,-2.68,2.58,4.31
36.584,-2.21,-2.65,2.77,4.43
36.594,-2.18,-2.87,2.83,4.58
36.604,-2.16,-3.06,2.79,4.67
36.614,-2.13,-2.89,2.81,4.56
36.624,-2.15,-2.65,2.62,4.30
36.634,-2.21,-2.70,2.74,4.44
36.644,-2.16,-2.77,2.83,4.51
36.654,-2.20,-3.19,2.84,4.80
36.664,-2.10,-2.77,2.66,4.38
36.674,-2.19,-2.80,2.65,4.43
36.684,-2.19,-2.73,2.80,4.48
36.694,-2.20,-2.90,2.84,4.61
36.704,-2.18,-3.12,2.79,4.72
36.714,-2.15,-2.80,2.65,4.41
36.724,-2.17,-2.71,2.72,4.41
36.734,-2.17,-2.69,2.84,4.48
36.743,-2.18,-2.96,2.80,4.63
36.754,-2.24,-3.18,2.83,4.80
36.763,-2.14,-2.94,2.82,4.60
36.774,-2.16,-2.72,2.65,4.37
36.784,-2.14,-2.69,3.00,4.57
36.793,-2.22,-2.82,2.86,4.59
36.803,-2.23,-3.17,2.66,4.70
36.814,-2.17,-2.81,2.66,4.44
36.824,-2.13,-2.79,2.85,4.52
36.834,-2.17,-2.69,2.93,4.53
36.843,-2.23,-3.01,2.87,4.72
36.853,-2.23,-3.13,2.72,4.71
36.863,-2.19,-2.87,2.61,4.45
36.873,-2.17,-2.71,2.70,4.40
36.883,-2.15,-2.69,2.83,4.46
36.893,-2.23,-3.05,2.71,4.65
36.903,-2.24,-3.08,2.75,4.70
36.913,-2.27,-2.93,2.37,4.40
36.923,-2.21,-2.82,2.66,4.46
36.933,-2.12,-2.65,2.91,4.47
36.943,-2.19,-3.04,2.60,4.56
36.953,-2.27,-3.01,2.52,4.54
36.963,-2.23,-2.84,2.56,4.42
36.973,-2.21,-2.79,2.60,4.41
36.983,-2.14,-2.73,2.90,4.52
36.993,-2.19,-3.01,2.63,4.56
37.003,-2.21,-2.97,2.45,4.44
37.013,-2.24,-2.79,2.53,4.38
37.023,-2.18,-2.79,2.82,4.53
37.033,-2.17,-2.79,2.84,4.53
37.043,-2.19,-3.10,2.95,4.81
37.053,-2.21,-2.94,2.84,4.65
37.063,-2.25,-2.83,2.53,4.41
37.073,-2.22,-2.83,2.86,4.59
37.083,-2.17,-2.81,2.85,4.55
37.093,-2.19,-3.07,2.72,4.65
37.103,-2.25,-2.85,2.62,4.48
37.113,-2.28,-2.89,2.59,4.50
37.123,-2.25,-2.76,2.52,4.36
37.133,-2.20,-2.92,2.87,4.65
37.143,-2.17,-3.08,2.78,4.68
37.153,-2.18,-2.94,2.50,4.43
37.163,-2.25,-2.83,2.52,4.41
37.173,-2.23,-2.79,2.92,4.61
37.183,-2.26,-3.04,2.70,4.65
37.193,-2.23,-3.14,2.78,4.75
37.203,-2.20,-2.89,2.74,4.55
37.213,-2.22,-2.79,2.55,4.38
37.223,-2.25,-2.79,2.79,4.54
37.233,-2.21,-3.00,2.69,4.60
37.243,-2.23,-3.18,2.71,4.73
37.253,-2.19,-2.88,2.81,4.58
37.263,-2.21,-2.90,2.73,4.56
37.273,-2.21,-2.78,2.78,4.51
37.283,-2.29,-3.08,2.80,4.75
37.293,-2.24,-3.04,2.81,4.70
37.302,-2.23,-3.02,2.73,4.64
37.313,-2.19,-2.79,2.82,4.53
37.323,-2.27,-2.82,2.85,4.61
37.333,-2.28,-3.11,2.86,4.80
37.343,-2.29,-3.13,2.80,4.78
37.353,-2.17,-3.00,2.60,4.52
37.363,-2.18,-2.83,2.68,4.47
37.373,-2.18,-2.79,2.85,4.55
37.383,-2.24,-3.11,2.71,4.69
37.393,-2.28,-3.19,2.81,4.83
37.403,-2.22,-2.87,2.82,4.59
37.412,-2.26,-2.91,2.82,4.64
37.423,-2.25,-2.81,3.01,4.69
37.432,-2.29,-3.09,2.77,4.74
37.442,-2.32,-3.22,2.67,4.79
37.453,-2.23,-2.93,2.72,4.58
37.462,-2.22,-2.95,2.72,4.59
37.473,-2.19,-2.94,3.04,4.76
37.482,-2.23,-3.05,2.83,4.72
37.492,-2.30,-3.31,2.56,4.77
37.503,-2.25,-2.94,2.74,4.61
37.512,-2.20,-2.93,2.88,4.66
37.522,-2.24,-2.99,2.90,4.72
37.532,-2.26,-3.11,2.97,4.86
37.542,-2.33,-3.23,2.81,4.87
37.552,-2.33,-3.04,2.64,4.65
37.562,-2.24,-2.98,2.92,4.73
37.572,-2.22,-2.97,2.99,4.76
37.582,-2.21,-3.21,2.88,4.85
37.592,-2.28,-3.15,2.77,4.78
37.602,-2.26,-3.05,2.66,4.64
37.612,-2.29,-3.03,2.92,4.79
37.622,-2.21,-3.01,3.15,4.89
37.632,-2.26,-3.28,2.95,4.96
37.642,-2.29,-3.17,2.79,4.80
37.652,-2.33,-2.98,2.68,4.64
37.662,-2.28,-3.05,2.88,4.78
37.672,-2.24,-3.00,3.01,4.80
37.682,-2.24,-3.36,2.99,5.03
37.692,-2.28,-3.21,2.72,4.79
37.702,-2.31,-3.04,2.72,4.69
37.712,-2.32,-3.03,2.90,4.79
37.722,-2.26,-3.08,3.00,4.86
37.732,-2.24,-3.37,2.94,5.00
37.742,-2.28,-3.10,2.76,4.73
37.752,-2.33,-2.98,2.64,4.61
37.762,-2.34,-2.99,2.95,4.81
37.772,-2.30,-3.17,2.98,4.92
37.782,-2.29,-3.38,3.04,5.09
37.792,-2.25,-3.19,2.93,4.87
37.802,-2.30,-3.01,2.74,4.67
37.812,-2.31,-3.06,2.84,4.77
37.822,-2.31,-3.19,2.67,4.76
37.832,-2.28,-3.36,2.98,5.03
37.842,-2.30,-3.11,2.74,4.73
37.852,-2.31,-3.21,2.61,4.74
37.862,-2.33,-2.99,2.88,4.76
37.872,-2.30,-3.26,2.90,4.93
37.882,-2.34,-3.44,2.75,4.99
37.892,-2.29,-3.07,2.66,4.66
37.902,-2.31,-3.03,2.72,4.68
37.912,-2.35,-3.06,2.84,4.79
37.922,-2.33,-3.23,2.83,4.89
37.932,-2.32,-3.48,2.77,5.02
37.942,-2.26,-3.14,2.59,4.65
37.952,-2.30,-3.09,2.66,4.68
37.962,-2.30,-3.02,2.77,4.70
37.972,-2.30,-3.32,2.85,4.94
37.982,-2.35,-3.53,2.71,5.03
37.992,-2.31,-3.24,2.64,4.77
38.002,-2.31,-2.99,2.81,4.71
38.012,-2.31,-3.02,2.91,4.79
38.022,-2.34,-3.36,2.78,4.95
38.032,-2.40,-3.45,2.69,4.98
38.042,-2.30,-3.23,2.58,4.73
38.052,-2.30,-3.09,2.80,4.76
38.062,-2.30,-3.05,2.93,4.81
38.072,-2.33,-3.37,2.82,4.98
38.081,-2.44,-3.49,2.57,4.97
38.091,-2.31,-3.19,2.60,4.72
38.101,-2.30,-3.08,2.77,4.74
38.111,-2.27,-3.10,3.06,4.91
38.121,-2.33,-3.43,2.91,5.07
38.131,-2.35,-3.51,2.64,4.98
38.141,-2.35,-3.18,2.64,4.76
38.152,-2.34,-3.16,2.78,4.81
38.161,-2.31,-3.09,2.90,4.82
38.171,-2.33,-3.43,2.84,5.02
38.181,-2.35,-3.48,2.66,4.97
38.191,-2.34,-3.28,2.56,4.77
38.202,-2.35,-3.18,2.74,4.81
38.211,-2.30,-3.18,2.89,4.88
38.221,-2.32,-3.45,2.82,5.03
38.231,-2.36,-3.37,2.70,4.92
38.241,-2.38,-3.23,2.55,4.75
38.251,-2.34,-3.14,2.92,4.89
38.261,-2.29,-3.19,3.00,4.94
38.271,-2.32,-3.49,2.93,5.11
38.281,-2.33,-3.32,2.83,4.95
38.291,-2.35,-3.26,2.69,4.83
38.301,-2.36,-3.14,2.95,4.91
38.311,-2.35,-3.29,3.06,5.07
38.321,-2.32,-3.57,3.00,5.20
38.331,-2.31,-3.38,2.83,4.98
38.341,-2.34,-3.24,2.76,4.86
38.351,-2.39,-3.20,2.80,4.87
38.361,-2.33,-3.36,2.99,5.06
38.371,-2.33,-3.54,2.97,5.18
38.381,-2.33,-3.41,2.74,4.96
38.391,-2.38,-3.18,2.60,4.75
38.401,-2.41,-3.19,2.80,4.88
38.411,-2.37,-3.41,2.81,5.01
38.421,-2.36,-3.65,2.73,5.14
38.431,-2.31,-3.37,2.70,4.89
38.441,-2.37,-3.22,2.69,4.82
38.451,-2.37,-3.18,2.90,4.91
38.461,-2.41,-3.36,2.85,5.03
38.471,-2.35,-3.63,2.82,5.16
38.481,-2.35,-3.30,2.76,4.90
38.491,-2.32,-3.26,2.95,4.97
38.501,-2.32,-3.23,3.01,4.99
38.511,-2.38,-3.46,2.88,5.09
38.521,-2.41,-3.64,2.83,5.20
38.531,-2.32,-3.28,2.79,4.89
38.541,-2.34,-3.25,2.87,4.93
38.551,-2.33,-3.19,2.99,4.95
38.561,-2.41,-3.51,2.73,5.06
38.571,-2.40,-3.68,2.81,5.22
38.581,-2.37,-3.34,2.70,4.91
38.591,-2.36,-3.33,2.85,4.97
38.601,-2.37,-3.26,2.88,4.96
38.611,-2.33,-3.62,2.86,5.17
38.621,-2.43,-3.61,2.60,5.07
38.631,-2.33,-3.39,2.73,4.94
38.641,-2.38,-3.29,2.77,4.92
38.651,-2.32,-3.36,2.97,5.05
38.661,-2.36,-3.53,3.01,5.21
38.671,-2.44,-3.71,2.84,5.27
38.681,-2.41,-3.39,2.74,4.98
38.691,-2.37,-3.28,2.99,5.03
38.701,-2.32,-3.29,3.11,5.08
38.711,-2.34,-3.55,3.03,5.22
38.721,-2.43,-3.67,2.78,5.21
38.731,-2.38,-3.39,2.80,5.00
38.741,-2.36,-3.40,2.97,5.09
38.750,-2.32,-3.37,3.11,5.13
38.760,-2.37,-3.66,2.97,5.28
38.770,-2.43,-3.59,2.78,5.15
38.780,-2.41,-3.41,2.61,4.93
38.790,-2.40,-3.34,2.85,5.00
38.801,-2.31,-3.41,3.08,5.14
38.811,-2.38,-3.76,2.98,5.36
38.820,-2.38,-3.62,2.91,5.22
38.830,-2.43,-3.43,2.84,5.08
38.841,-2.44,-3.45,2.96,5.16
38.850,-2.35,-3.47,3.22,5.28
38.860,-2.38,-3.74,3.15,5.44
38.870,-2.37,-3.53,2.81,5.10
38.880,-2.38,-3.42,2.88,5.07
38.890,-2.40,-3.42,3.09,5.20
38.900,-2.37,-3.49,3.19,5.29
38.910,-2.42,-3.70,3.14,5.42
38.920,-2.36,-3.55,2.86,5.13
38.930,-2.42,-3.40,2.81,5.03
38.940,-2.42,-3.38,3.14,5.21
38.950,-2.37,-3.57,3.13,5.30
38.960,-2.39,-3.82,3.01,5.42
38.970,-2.35,-3.53,2.94,5.16
38.980,-2.40,-3.43,2.77,5.02
38.990,-2.44,-3.37,2.86,5.05
39.000,-2.40,-3.55,2.95,5.20
39.010,-2.42,-3.84,2.88,5.37
39.020,-2.36,-3.56,2.92,5.17
39.030,-2.45,-3.45,2.86,5.11
39.040,-2.42,-3.45,2.99,5.17
39.050,-2.39,-3.63,3.04,5.30
39.060,-2.40,-3.92,3.04,5.52
39.070,-2.33,-3.62,3.00,5.25
39.080,-2.36,-3.51,3.11,5.25
39.090,-2.41,-3.44,3.04,5.18
39.100,-2.45,-3.66,3.13,5.40
39.110,-2.49,-3.84,3.02,5.48
39.120,-2.36,-3.66,2.89,5.23
39.130,-2.39,-3.47,2.96,5.15
39.140,-2.38,-3.43,3.12,5.21
39.150,-2.45,-3.63,2.95,5.28
39.160,-2.42,-3.82,2.88,5.36
39.170,-2.34,-3.60,2.79,5.12
39.180,-2.38,-3.39,3.00,5.11
39.190,-2.36,-3.37,3.26,5.25
39.200,-2.44,-3.76,3.20,5.51
39.210,-2.45,-3.89,3.09,5.54
39.220,-2.46,-3.67,3.01,5.35
39.230,-2.42,-3.50,3.15,5.29
39.240,-2.37,-3.43,3.32,5.33
39.250,-2.38,-3.85,3.20,5.55
39.260,-2.37,-3.89,3.09,5.51
39.270,-2.40,-3.71,2.87,5.27
39.280,-2.39,-3.60,3.14,5.34
39.290,-2.38,-3.48,3.30,5.35
39.300,-2.47,-3.92,3.14,5.60
39.310,-2.48,-3.96,3.07,5.59
39.320,-2.47,-3.76,3.00,5.40
39.330,-2.46,-3.64,3.07,5.36
39.340,-2.37,-3.56,3.14,5.31
39.349,-2.42,-3.85,3.25,5.59
39.360,-2.47,-3.90,3.05,5.53
39.370,-2.48,-3.81,2.90,5.39
39.380,-2.48,-3.71,3.09,5.43
39.390,-2.38,-3.63,3.35,5.48
39.400,-2.40,-3.95,3.26,5.66
39.410,-2.40,-3.84,3.08,5.48
39.420,-2.43,-3.71,3.01,5.36
39.430,-2.45,-3.65,3.28,5.48
39.439,-2.40,-3.63,3.37,5.50
39.449,-2.43,-3.94,3.33,5.70
39.459,-2.46,-3.83,3.18,5.55
39.469,-2.51,-3.75,2.90,5.36
39.479,-2.49,-3.59,3.14,5.38
39.490,-2.42,-3.74,3.23,5.51
39.499,-2.39,-4.07,3.22,5.72
39.509,-2.39,-3.82,3.18,5.52
39.519,-2.43,-3.70,3.11,5.41
39.529,-2.50,-3.71,3.27,5.54
39.539,-2.46,-3.79,3.17,5.52
39.549,-2.48,-4.00,3.26,5.73
39.559,-2.42,-3.74,3.21,5.49
39.569,-2.45,-3.72,3.07,5.41
39.579,-2.47,-3.69,3.19,5.47
39.589,-2.43,-3.90,3.20,5.60
39.599,-2.48,-4.04,3.29,5.77
39.609,-2.42,-3.80,3.11,5.48
39.619,-2.42,-3.71,3.17,5.45
39.629,-2.45,-3.66,3.36,5.54
39.639,-2.46,-3.88,3.34,5.69
39.649,-2.48,-4.08,3.31,5.81
39.659,-2.43,-3.75,3.18,5.48
39.669,-2.43,-3.73,3.22,5.49
39.679,-2.44,-3.62,3.31,5.47
39.689,-2.44,-3.95,3.32,5.70
39.699,-2.49,-4.05,3.21,5.74
39.709,-2.43,-3.89,2.95,5.46
39.719,-2.45,-3.67,3.19,5.44
39.729,-2.43,-3.62,3.29,5.46
39.739,-2.49,-4.00,3.06,5.62
39.749,-2.51,-4.06,3.17,5.73
39.759,-2.45,-3.86,3.05,5.50
39.769,-2.43,-3.84,3.25,5.59
39.779,-2.42,-3.64,3.42,5.55
39.789,-2.48,-4.00,3.23,5.71
39.799,-2.54,-4.04,3.07,5.68
39.809,-2.50,-3.83,3.09,5.52
39.819,-2.48,-3.76,3.27,5.56
39.829,-2.42,-3.74,3.25,5.52
39.839,-2.41,-3.97,3.30,5.70
39.849,-2.52,-4.05,3.15,5.71
39.859,-2.48,-3.83,2.97,5.44
39.869,-2.51,-3.81,3.27,5.61
39.879,-2.42,-3.73,3.45,5.63
39.889,-2.50,-4.07,3.19,5.74
39.899,-2.51,-3.93,3.05,5.57
39.909,-2.50,-3.81,2.87,5.38
39.919,-2.51,-3.84,3.06,5.51
39.929,-2.44,-3.75,3.35,5.58
39.939,-2.45,-4.19,3.31,5.87
39.949,-2.49,-3.97,3.22,5.69
39.959,-2.50,-3.86,3.11,5.55
39.969,-2.53,-3.78,3.22,5.57
39.979,-2.46,-3.78,3.35,5.62
39.989,-2.47,-4.08,3.25,5.77
39.999,-2.42,-3.90,3.09,5.53
40.009,-2.51,-3.77,3.02,5.45
40.020,-2.52,-3.78,3.24,5.58
40.029,-2.49,-3.89,3.26,5.65
40.038,-2.49,-4.15,3.29,5.85
40.049,-2.46,-3.89,3.04,5.52
40.059,-2.50,-3.81,2.95,5.43
40.069,-2.48,-3.73,3.12,5.45
40.079,-2.46,-3.98,3.11,5.62
40.088,-2.51,-4.18,3.06,5.75
40.098,-2.45,-3.87,3.06,5.51
40.108,-2.50,-3.73,3.16,5.49
40.119,-2.53,-3.75,3.06,5.47
40.128,-2.52,-3.98,3.29,5.75
40.139,-2.51,-4.16,3.26,5.85
40.149,-2.45,-4.02,3.04,5.60
40.159,-2.46,-3.75,3.08,5.44
40.168,-2.48,-3.74,3.18,5.50
40.178,-2.49,-4.04,3.28,5.77
40.188,-2.51,-4.21,3.23,5.87
40.198,-2.50,-3.88,2.94,5.48
40.208,-2.51,-3.74,3.19,5.52
40.218,-2.50,-3.65,3.26,5.50
40.228,-2.55,-4.08,3.16,5.75
40.238,-2.56,-4.29,3.09,5.87
40.248,-2.47,-4.01,3.02,5.60
40.258,-2.47,-3.83,3.16,5.54
40.268,-2.44,-3.73,3.38,5.60
40.278,-2.52,-4.09,3.05,5.69
40.288,-2.56,-4.11,2.90,5.65
40.298,-2.54,-3.80,2.99,5.46
40.308,-2.51,-3.79,3.11,5.51
40.318,-2.45,-3.85,3.29,5.63
40.328,-2.56,-4.07,3.19,5.77
40.338,-2.54,-4.20,2.94,5.72
40.348,-2.53,-3.90,2.93,5.49
40.358,-2.47,-3.83,3.16,5.55
40.368,-2.47,-3.82,3.39,5.67
40.378,-2.46,-4.12,3.28,5.81
40.388,-2.55,-4.17,3.09,5.78
40.398,-2.53,-3.89,3.07,5.56
40.408,-2.59,-3.87,3.15,5.62
40.418,-2.46,-3.80,3.29,5.59
40.428,-2.51,-4.13,3.20,5.80
40.438,-2.49,-4.07,3.20,5.75
40.448,-2.51,-3.93,3.03,5.56
40.458,-2.54,-3.95,3.02,5.58
40.468,-2.43,-3.84,3.42,5.69
40.478,-2.51,-4.17,3.27,5.86
40.488,-2.52,-4.07,2.97,5.64
40.498,-2.59,-3.87,2.97,5.53
40.508,-2.54,-3.86,3.22,5.63
40.518,-2.52,-3.91,3.27,5.69
40.528,-2.50,-4.20,3.23,5.86
40.538,-2.49,-4.09,3.07,5.69
40.548,-2.50,-3.89,3.10,5.57
40.558,-2.54,-3.89,3.07,5.57
40.568,-2.50,-3.98,3.29,5.73
40.578,-2.50,-4.21,3.26,5.88
40.588,-2.53,-4.03,3.06,5.66
40.598,-2.54,-3.82,3.00,5.48
40.608,-2.56,-3.87,3.17,5.62
40.618,-2.56,-4.02,3.25,5.77
40.628,-2.51,-4.28,3.29,5.96
40.638,-2.47,-4.06,3.06,5.65
40.648,-2.49,-3.84,3.02,5.48
40.658,-2.53,-3.85,3.12,5.57
40.668,-2.56,-3.98,3.16,5.69
40.678,-2.56,-4.31,3.15,5.92
40.688,-2.46,-3.94,3.14,5.60
40.698,-2.50,-3.91,3.15,5.61
40.708,-2.53,-3.75,3.34,5.62
40.717,-2.58,-4.10,3.26,5.84
40.728,-2.59,-4.24,3.07,5.84
40.738,-2.51,-4.05,3.12,5.70
40.748,-2.51,-3.85,3.11,5.55
40.757,-2.50,-3.92,3.14,5.61
40.767,-2.54,-4.05,3.17,5.74
40.777,-2.57,-4.29,3.13,5.90
40.788,-2.55,-4.07,2.90,5.61
40.798,-2.48,-3.87,3.17,5.58
40.808,-2.49,-3.85,3.31,5.65
40.818,-2.53,-4.10,3.15,5.75
40.828,-2.57,-4.30,3.07,5.87
40.837,-2.54,-4.02,3.07,5.66
40.847,-2.50,-3.95,3.22,5.68
40.857,-2.51,-3.78,3.37,5.66
40.868,-2.51,-4.07,3.26,5.78
40.877,-2.59,-4.15,3.18,5.83
40.888,-2.53,-3.98,3.12,5.65
40.897,-2.50,-3.93,3.25,5.68
40.907,-2.48,-3.79,3.48,5.71
40.917,-2.52,-4.15,3.31,5.88
40.927,-2.55,-4.22,3.18,5.87
40.937,-2.53,-3.92,3.21,5.66
40.947,-2.55,-3.94,3.22,5.69
40.957,-2.49,-3.88,3.25,5.64
40.967,-2.48,-4.04,3.29,5.77
40.977,-2.56,-4.09,3.13,5.75
40.987,-2.57,-4.01,3.01,5.64
40.997,-2.57,-3.94,3.25,5.72
41.007,-2.50,-3.99,3.48,5.86
41.017,-2.49,-4.26,3.33,5.95
41.027,-2.56,-4.03,3.05,5.67
41.037,-2.54,-3.97,3.12,5.65
41.047,-2.54,-3.93,3.15,5.64
41.057,-2.49,-4.00,3.35,5.78
41.067,-2.54,-4.19,3.47,6.00
41.077,-2.52,-4.12,3.19,5.79
41.087,-2.55,-3.96,3.21,5.70
41.097,-2.59,-3.90,3.26,5.71
41.107,-2.57,-4.04,3.36,5.85
41.117,-2.52,-4.25,3.40,5.99
41.127,-2.49,-4.12,3.18,5.77
41.137,-2.48,-4.02,3.30,5.76
41.147,-2.56,-3.98,3.39,5.82
41.157,-2.57,-4.17,3.23,5.87
41.167,-2.58,-4.28,3.36,6.02
41.177,-2.52,-4.05,3.25,5.77
41.187,-2.57,-4.03,3.11,5.70
41.197,-2.58,-3.90,3.56,5.88
41.207,-2.58,-4.18,3.28,5.91
41.217,-2.56,-4.40,3.21,6.02
41.227,-2.48,-3.94,3.23,5.67
41.237,-2.51,-4.02,3.04,5.63
41.247,-2.57,-3.99,3.22,5.74
41.257,-2.53,-4.14,3.40,5.93
41.267,-2.60,-4.42,3.22,6.05
41.277,-2.52,-4.10,3.36,5.87
41.287,-2.55,-3.90,3.33,5.72
41.297,-2.52,-3.99,3.38,5.80
41.307,-2.56,-4.12,3.42,5.93
41.317,-2.61,-4.35,3.29,6.04
41.327,-2.48,-4.11,3.30,5.82
41.337,-2.49,-4.06,3.37,5.83
41.347,-2.47,-4.03,3.44,5.85
41.357,-2.62,-4.18,3.37,5.98
41.367,-2.58,-4.35,3.29,6.03
41.377,-2.55,-4.19,3.18,5.85
41.387,-2.50,-4.03,3.48,5.88
41.397,-2.53,-3.99,3.51,5.89
41.407,-2.57,-4.25,3.27,5.95
41.417,-2.63,-4.37,3.13,5.98
41.426,-2.55,-4.16,3.13,5.80
41.436,-2.53,-4.09,3.30,5.84
41.446,-2.49,-4.08,3.44,5.89
41.456,-2.52,-4.34,3.44,6.08
41.466,-2.55,-4.28,3.24,5.94
41.477,-2.61,-4.13,3.09,5.78
41.486,-2.50,-4.08,3.47,5.91
41.496,-2.52,-4.05,3.54,5.94
41.506,-2.51,-4.41,3.55,6.20
41.516,-2.55,-4.26,3.41,6.02
41.526,-2.58,-4.22,3.21,5.90
41.536,-2.57,-4.12,3.45,5.96
41.546,-2.49,-4.11,3.61,6.01
41.556,-2.50,-4.42,3.45,6.15
41.566,-2.55,-4.29,3.30,5.98
41.576,-2.55,-4.25,3.25,5.92
41.586,-2.58,-4.16,3.41,5.97
41.596,-2.48,-4.25,3.53,6.06
41.606,-2.53,-4.51,3.33,6.15
41.616,-2.53,-4.33,3.25,5.97
41.626,-2.56,-4.19,3.25,5.89
41.636,-2.59,-4.20,3.45,6.02
41.646,-2.55,-4.24,3.45,6.03
41.656,-2.56,-4.55,3.43,6.25
41.666,-2.55,-4.22,3.10,5.82
41.676,-2.55,-4.11,3.23,5.82
41.686,-2.58,-4.20,3.38,5.98
41.696,-2.50,-4.38,3.53,6.16
41.706,-2.51,-4.62,3.59,6.37
41.716,-2.53,-4.30,3.49,6.09
