time,ax,ay,az,atotal
0.000,0.12,-0.08,0.08,0.16
0.010,0.03,0.09,0.27,0.29
0.020,-0.05,-0.21,0.39,0.44
0.030,0.03,-0.28,0.09,0.29
0.040,0.15,-0.18,-0.02,0.23
0.050,0.15,0.18,0.17,0.29
0.060,-0.04,0.04,0.31,0.32
0.070,0.02,-0.19,-0.10,0.21
0.080,0.01,-0.18,-0.21,0.28
0.090,0.15,0.12,-0.06,0.20
0.100,-0.04,0.06,0.26,0.27
0.110,-0.06,-0.26,0.01,0.26
0.120,0.02,-0.22,-0.09,0.24
0.130,0.14,-0.16,0.01,0.22
0.140,0.06,0.16,0.34,0.39
0.150,-0.03,-0.22,0.46,0.51
0.160,0.04,-0.30,-0.03,0.30
0.170,0.08,-0.12,-0.03,0.15
0.180,0.14,0.26,0.18,0.35
0.190,-0.04,0.03,0.29,0.29
0.199,0.02,-0.26,0.07,0.27
0.210,0.03,-0.16,-0.31,0.35
0.219,0.17,0.01,0.11,0.20
0.230,-0.03,0.30,0.25,0.39
0.240,-0.05,-0.40,0.24,0.47
0.250,0.04,-0.35,-0.04,0.36
0.260,0.13,-0.13,-0.01,0.18
0.269,0.04,0.22,0.29,0.37
0.280,-0.04,-0.05,0.32,0.32
0.290,0.05,-0.37,0.05,0.37
0.299,0.08,-0.15,-0.09,0.19
0.310,0.17,0.21,0.15,0.31
0.319,-0.07,0.12,0.15,0.20
0.330,0.02,-0.27,0.01,0.27
0.339,0.01,-0.30,-0.18,0.35
0.350,0.15,0.02,-0.00,0.15
0.360,-0.07,0.12,0.23,0.27
0.369,-0.05,-0.19,0.17,0.26
0.380,-0.00,-0.35,-0.01,0.35
0.389,0.13,-0.11,0.01,0.18
0.399,0.08,0.16,0.31,0.35
0.409,-0.06,-0.10,0.32,0.34
0.419,0.06,-0.24,0.05,0.25
0.429,0.09,-0.19,-0.14,0.25
0.440,0.14,0.17,0.01,0.22
0.449,-0.08,0.21,0.24,0.33
0.459,-0.05,-0.32,0.05,0.33
0.469,-0.01,-0.29,-0.16,0.34
0.479,0.09,-0.02,0.24,0.26
0.489,-0.08,0.21,0.20,0.30
0.499,-0.01,-0.38,0.39,0.54
0.509,0.02,-0.33,0.07,0.34
0.519,0.12,-0.11,-0.09,0.18
0.529,0.09,0.21,0.03,0.23
0.539,-0.02,-0.07,0.37,0.38
0.549,0.05,-0.29,-0.01,0.30
0.559,0.07,-0.18,-0.22,0.29
0.569,0.19,0.11,-0.19,0.30
0.579,-0.11,0.13,0.57,0.60
0.589,-0.01,-0.30,0.20,0.36
0.599,-0.04,-0.27,-0.19,0.34
0.609,0.12,-0.11,-0.00,0.16
0.619,-0.01,0.16,0.36,0.39
0.629,-0.03,-0.19,0.23,0.30
0.639,0.01,-0.36,-0.02,0.37
0.649,0.10,-0.24,-0.12,0.28
0.659,0.07,0.18,0.06,0.20
0.669,0.01,-0.01,0.52,0.52
0.679,0.04,-0.32,-0.02,0.32
0.689,0.03,-0.17,-0.10,0.20
0.699,0.08,0.12,-0.15,0.21
0.709,0.02,0.05,0.42,0.43
0.719,-0.05,-0.19,0.09,0.22
0.729,-0.03,-0.37,-0.25,0.44
0.739,0.10,-0.11,0.04,0.15
0.749,-0.03,0.19,0.25,0.31
0.759,-0.01,-0.27,0.45,0.53
0.769,0.02,-0.27,0.04,0.28
0.779,0.08,-0.22,-0.14,0.27
0.789,0.13,0.12,0.04,0.18
0.799,0.03,-0.02,0.55,0.55
0.809,0.05,-0.28,-0.03,0.29
0.819,0.02,-0.19,-0.27,0.33
0.829,0.13,0.09,-0.16,0.23
0.839,-0.07,0.08,0.35,0.36
0.849,-0.03,-0.24,0.25,0.35
0.859,-0.05,-0.24,-0.20,0.32
0.869,0.11,-0.15,-0.18,0.25
0.879,-0.01,0.09,0.37,0.38
0.888,-0.06,-0.24,0.50,0.56
0.899,0.01,-0.34,0.15,0.37
0.909,0.09,-0.11,-0.19,0.23
0.919,0.11,0.15,-0.13,0.23
0.928,-0.00,-0.01,0.63,0.63
0.938,0.01,-0.20,0.00,0.20
0.948,-0.01,-0.30,-0.22,0.37
0.959,0.10,0.03,-0.07,0.13
0.969,-0.06,0.16,0.34,0.38
0.979,-0.05,-0.34,0.26,0.43
0.988,-0.03,-0.31,-0.16,0.35
0.998,0.10,-0.21,-0.07,0.24
1.009,0.09,0.11,0.36,0.39
1.018,-0.01,-0.18,0.47,0.50
1.029,0.04,-0.32,0.07,0.33
1.038,0.05,-0.14,-0.17,0.22
1.048,0.14,0.06,0.20,0.25
1.058,-0.05,0.04,0.40,0.41
1.068,-0.00,-0.27,0.01,0.27
1.078,-0.01,-0.20,-0.29,0.35
1.088,0.10,-0.06,0.09,0.15
1.098,-0.03,0.16,0.44,0.47
1.108,-0.14,-0.75,0.30,0.82
1.118,0.06,0.01,-0.15,0.16
1.128,0.14,-0.16,-0.13,0.24
1.138,0.06,0.04,0.32,0.33
1.148,-0.05,-0.16,0.36,0.40
1.158,0.02,-0.33,-0.04,0.33
1.168,0.10,-0.16,-0.05,0.19
1.178,0.14,0.11,0.16,0.24
1.188,-0.09,0.04,0.35,0.36
1.198,-0.03,-0.29,0.13,0.32
1.208,-0.03,-0.24,-0.25,0.35
1.218,0.17,-0.07,-0.01,0.19
1.228,-0.06,0.19,0.31,0.37
1.238,-0.15,-0.46,0.17,0.52
1.248,0.02,-0.27,0.06,0.27
1.258,0.17,-0.19,0.07,0.27
1.268,0.08,0.04,0.30,0.31
1.278,-0.04,-0.09,0.41,0.42
1.288,0.02,-0.29,-0.10,0.31
1.298,0.07,-0.18,-0.01,0.19
1.308,0.17,0.10,0.12,0.23
1.318,-0.09,0.05,0.27,0.28
1.328,-0.04,-0.24,0.03,0.24
1.338,0.01,-0.19,-0.16,0.25
1.348,0.10,-0.08,0.05,0.14
1.358,-0.04,-0.02,0.31,0.32
1.368,-0.10,-0.37,0.26,0.46
1.378,0.02,-0.41,0.00,0.41
1.388,0.14,-0.09,0.07,0.18
1.398,0.05,0.08,0.29,0.30
1.408,-0.01,-0.16,0.36,0.39
1.418,0.05,-0.17,0.07,0.18
1.428,0.04,-0.16,-0.15,0.22
1.438,0.12,0.07,0.04,0.14
1.448,-0.03,0.05,0.44,0.44
1.458,-0.07,-0.30,0.14,0.34
1.468,0.04,-0.35,0.09,0.37
1.478,-0.04,-0.05,0.27,0.27
1.488,0.06,0.05,0.35,0.36
1.498,-0.00,-0.23,0.29,0.37
1.508,0.02,-0.30,0.28,0.41
1.518,0.19,0.38,0.13,0.44
1.528,0.09,-0.40,-0.39,0.57
1.538,-0.02,-0.16,0.27,0.32
1.548,0.05,-0.18,0.26,0.32
1.558,0.08,0.13,0.51,0.53
1.568,0.07,0.13,0.05,0.15
1.578,-0.08,-0.46,-0.09,0.47
1.588,-0.05,-0.10,0.13,0.17
1.598,-0.07,-0.22,-0.15,0.28
1.608,0.01,-0.16,-0.32,0.36
1.618,-0.03,-0.23,-0.10,0.26
1.628,-0.08,-0.22,0.40,0.46
1.637,0.10,-0.37,0.40,0.55
1.648,0.09,-0.03,0.09,0.13
1.657,0.06,0.10,-0.05,0.13
1.667,-0.04,-0.16,0.11,0.20
1.677,0.07,-0.23,0.33,0.41
1.687,0.13,-0.14,0.02,0.19
1.697,0.12,0.08,-0.16,0.21
1.707,-0.14,0.06,0.08,0.18
1.717,-0.02,-0.25,0.38,0.46
1.728,0.02,-0.44,-0.05,0.44
1.737,0.03,-0.03,-0.17,0.18
1.747,-0.05,-0.04,0.02,0.06
1.757,-0.11,-0.31,0.48,0.58
1.767,0.04,-0.22,0.58,0.62
1.777,0.11,-0.12,0.07,0.18
1.787,0.05,0.05,-0.03,0.08
1.797,-0.01,0.07,0.55,0.56
1.807,0.04,-0.25,0.11,0.28
1.817,0.05,-0.16,-0.12,0.21
1.827,0.08,0.05,0.01,0.10
1.837,-0.04,0.04,0.54,0.54
1.847,-0.06,-0.30,0.42,0.52
1.857,-0.06,-0.37,-0.12,0.40
1.867,0.05,-0.11,-0.10,0.16
1.877,0.02,0.18,0.41,0.45
1.887,-0.02,-0.28,0.48,0.55
1.897,0.01,-0.40,0.13,0.42
1.907,0.10,-0.03,-0.14,0.18
1.917,0.14,0.06,0.24,0.29
1.927,-0.06,0.02,0.45,0.45
1.937,0.01,-0.33,0.19,0.38
1.947,0.03,-0.20,-0.15,0.25
1.957,0.09,0.01,-0.10,0.14
1.967,-0.05,0.18,0.29,0.35
1.977,-0.03,-0.41,0.63,0.75
1.987,-0.05,-0.27,-0.25,0.37
1.997,0.09,-0.23,-0.05,0.26
2.007,-0.00,0.15,0.47,0.50
2.017,-0.05,-0.14,0.53,0.55
2.027,0.05,-0.43,0.16,0.46
2.037,0.09,-0.22,-0.10,0.26
2.047,0.12,0.23,0.15,0.30
2.057,-0.06,0.10,0.41,0.42
2.067,0.01,-0.27,0.20,0.33
2.077,0.02,-0.30,-0.03,0.30
2.087,0.09,-0.06,-0.05,0.12
2.097,-0.10,0.14,0.38,0.42
2.107,-0.06,-0.24,0.45,0.52
2.117,-0.06,-0.37,-0.08,0.38
2.127,0.09,-0.25,0.00,0.26
2.137,0.06,0.23,0.32,0.40
2.147,-0.06,-0.18,0.42,0.46
2.157,0.04,-0.27,0.23,0.36
2.167,0.09,-0.19,0.04,0.21
2.177,0.13,0.06,0.13,0.19
2.187,-0.09,0.08,0.42,0.44
2.197,0.01,-0.20,0.10,0.22
2.207,-0.01,-0.35,0.03,0.36
2.217,0.11,0.02,-0.02,0.12
2.227,-0.04,0.06,0.28,0.29
2.237,-0.09,-0.31,0.40,0.52
2.247,0.01,-0.27,0.06,0.28
2.257,0.05,-0.29,-0.02,0.30
2.267,0.09,0.09,0.40,0.42
2.277,-0.08,-0.03,0.56,0.57
2.287,0.02,-0.42,0.09,0.43
2.297,0.06,-0.11,-0.05,0.13
2.307,0.12,0.20,0.05,0.24
2.317,-0.04,-0.02,0.47,0.47
2.327,-0.04,-0.25,0.26,0.36
2.337,-0.02,-0.24,-0.17,0.29
2.347,0.04,-0.11,-0.02,0.12
2.356,-0.06,0.13,0.43,0.46
2.367,-0.03,-0.28,0.42,0.51
2.377,0.09,-0.55,0.13,0.57
2.386,0.27,-0.27,-0.09,0.39
2.397,0.16,-0.05,0.30,0.35
2.406,-0.02,-0.03,0.46,0.47
2.416,-0.07,-0.07,0.21,0.23
2.426,-0.08,-0.01,-0.17,0.19
2.436,-0.03,0.15,0.07,0.17
2.446,-0.09,0.19,0.38,0.43
2.456,0.01,-0.30,0.21,0.36
2.466,-0.04,-0.33,-0.05,0.33
2.476,0.09,-0.14,-0.07,0.18
2.486,-0.02,0.04,0.34,0.35
2.496,-0.05,-0.18,0.51,0.55
2.506,-0.05,-0.37,0.04,0.38
2.516,0.00,-0.25,0.06,0.26
2.526,-0.33,0.07,0.68,0.76
2.536,0.00,0.15,0.37,0.40
2.546,0.23,-0.21,-0.32,0.45
2.556,0.06,-0.23,-0.16,0.28
2.566,0.08,0.07,0.02,0.11
2.576,-0.04,0.06,0.35,0.36
2.586,-0.09,-0.18,0.21,0.29
2.596,-0.04,-0.32,-0.14,0.35
2.606,0.04,-0.21,-0.03,0.22
2.616,-0.02,0.23,0.35,0.42
2.626,-0.08,-0.23,0.31,0.39
2.636,0.00,-0.32,0.17,0.36
2.646,0.05,-0.18,-0.01,0.18
2.656,0.12,0.06,0.25,0.28
2.666,-0.09,0.14,0.31,0.35
2.676,0.03,-0.36,0.14,0.38
2.686,-0.02,-0.18,-0.14,0.23
2.696,0.12,-0.06,-0.06,0.15
2.706,-0.04,0.27,0.09,0.29
2.716,-0.15,-0.28,0.39,0.50
2.726,-0.08,-0.37,0.13,0.40
2.736,0.08,-0.10,-0.29,0.32
2.746,-0.07,0.10,0.25,0.27
2.756,-0.08,-0.11,0.53,0.54
2.766,0.05,-0.37,0.05,0.37
2.776,0.07,-0.19,-0.04,0.20
2.786,0.10,0.14,0.04,0.18
2.796,-0.09,0.04,0.32,0.34
2.806,0.01,-0.26,0.17,0.31
2.816,-0.04,-0.24,-0.20,0.32
2.826,0.08,0.03,-0.09,0.12
2.836,-0.11,0.10,0.27,0.31
2.846,-0.09,-0.28,0.21,0.36
2.856,-0.04,-0.41,-0.10,0.43
2.866,0.04,-0.17,-0.13,0.22
2.876,0.02,0.17,0.15,0.23
2.886,-0.07,-0.18,0.37,0.42
2.896,0.01,-0.36,0.11,0.37
2.906,0.10,-0.22,-0.03,0.24
2.916,0.14,0.16,-0.16,0.26
2.926,-0.13,0.11,0.53,0.56
2.937,0.00,-0.21,0.22,0.30
2.946,0.01,-0.34,-0.13,0.37
2.956,0.08,-0.01,-0.20,0.22
2.966,-0.13,0.17,0.18,0.28
2.976,-0.10,-0.20,0.09,0.24
2.986,-0.06,-0.45,0.03,0.46
2.996,0.07,-0.22,-0.11,0.25
3.005,-0.03,0.09,0.20,0.22
3.015,-0.08,-0.03,0.40,0.41
3.026,0.00,-0.29,0.06,0.29
3.036,0.10,-0.23,0.06,0.26
3.045,0.08,0.09,-0.07,0.14
3.055,-0.07,0.21,0.41,0.46
3.066,-0.01,-0.22,0.16,0.27
3.075,-0.02,-0.21,-0.11,0.24
3.086,0.07,-0.10,-0.14,0.19
3.095,-0.15,0.14,0.11,0.24
3.105,-0.14,-0.18,0.16,0.28
3.115,-0.07,-0.37,-0.12,0.39
3.125,0.09,-0.26,0.06,0.28
3.135,0.06,0.07,0.25,0.27
3.146,-0.06,0.05,0.58,0.58
3.155,0.04,-0.35,0.21,0.41
3.165,0.06,-0.20,-0.05,0.21
3.175,0.08,0.12,-0.01,0.14
3.185,-0.10,0.28,0.27,0.40
3.195,-0.04,-0.24,0.20,0.31
3.205,-0.02,-0.28,-0.21,0.35
3.215,0.05,-0.16,-0.21,0.27
3.225,-0.08,0.18,0.25,0.32
3.235,-0.13,-0.15,0.31,0.37
3.245,-0.06,-0.51,0.09,0.52
3.255,0.10,-0.27,0.09,0.30
3.265,0.03,0.03,0.13,0.13
3.275,-0.05,0.00,0.33,0.34
3.285,0.16,-0.04,0.20,0.26
3.295,0.03,-0.16,0.11,0.19
3.305,0.07,0.13,-0.28,0.32
3.315,-0.10,0.14,0.47,0.50
3.325,-0.04,-0.14,0.04,0.15
3.335,-0.04,-0.33,-0.13,0.36
3.345,0.04,-0.14,-0.17,0.23
3.355,-0.05,0.10,0.23,0.25
3.365,-0.11,-0.23,0.34,0.43
3.375,-0.01,-0.37,0.07,0.37
3.385,0.08,-0.24,0.03,0.25
3.395,0.02,0.19,0.05,0.19
3.406,-0.08,0.04,0.45,0.46
3.415,0.02,-0.19,0.10,0.21
3.425,-0.02,-0.16,-0.13,0.21
3.435,0.07,0.09,-0.12,0.17
3.445,-0.09,0.20,0.28,0.35
3.455,-0.06,-0.21,0.15,0.26
3.465,-0.04,-0.36,-0.22,0.42
3.475,0.05,-0.08,-0.07,0.12
3.485,-0.07,0.07,0.18,0.21
3.495,-0.12,-0.20,0.38,0.45
3.505,-0.01,-0.27,0.12,0.30
3.515,0.05,-0.24,-0.10,0.27
3.525,0.05,0.13,0.16,0.21
3.535,-0.09,0.20,0.38,0.44
3.545,0.03,-0.24,0.10,0.27
3.555,0.02,-0.19,0.04,0.20
3.565,-0.01,0.04,-0.19,0.20
3.575,-0.08,0.17,0.29,0.35
3.585,-0.07,-0.16,0.18,0.25
3.595,-0.07,-0.31,-0.08,0.33
3.605,-0.01,-0.16,-0.21,0.26
3.615,-0.06,0.08,0.21,0.24
3.625,-0.09,0.00,0.33,0.34
3.634,0.06,-0.29,0.21,0.36
3.644,0.10,-0.19,0.10,0.24
3.654,0.02,0.14,0.04,0.14
3.665,-0.00,0.22,0.46,0.51
3.675,0.02,-0.18,0.37,0.41
3.684,0.03,-0.22,-0.09,0.24
3.695,0.06,-0.05,-0.08,0.11
3.705,-0.13,0.32,0.18,0.39
3.715,-0.13,-0.17,0.19,0.28
3.724,-0.04,-0.28,-0.03,0.28
3.735,0.06,-0.25,0.12,0.28
3.745,-0.08,0.13,0.17,0.23
3.755,-0.10,-0.07,0.47,0.48
3.765,0.01,-0.29,0.25,0.38
3.775,0.11,-0.14,-0.01,0.18
3.784,0.05,0.11,0.06,0.14
3.795,-0.01,0.28,0.45,0.53
3.804,-0.00,-0.18,0.14,0.23
3.814,-0.02,-0.23,-0.05,0.23
3.824,0.04,0.09,-0.00,0.10
3.834,-0.13,0.09,0.16,0.23
3.844,-0.08,-0.18,0.38,0.42
3.854,-0.09,-0.23,-0.15,0.29
3.864,0.09,-0.26,-0.12,0.30
3.874,0.01,0.18,0.41,0.45
3.884,-0.07,-0.03,0.35,0.36
3.894,0.02,-0.27,0.13,0.30
3.904,0.07,-0.07,0.14,0.17
3.914,0.05,0.17,0.06,0.19
3.924,-0.09,0.19,0.39,0.44
3.934,-0.05,-0.00,0.30,0.30
3.944,-0.04,-0.16,-0.13,0.21
3.954,0.05,-0.09,-0.13,0.17
3.964,-0.11,0.24,0.39,0.47
3.974,-0.09,-0.14,0.19,0.25
3.984,-0.02,-0.34,0.13,0.36
3.994,0.04,-0.13,0.02,0.14
4.004,-0.01,0.06,0.11,0.13
4.014,-0.07,-0.02,0.56,0.56
4.024,0.03,-0.09,0.15,0.18
4.034,0.03,-0.16,-0.02,0.17
4.044,0.06,0.16,-0.20,0.26
4.054,-0.06,0.20,0.45,0.49
4.064,-0.01,-0.12,0.34,0.36
4.074,-0.03,-0.12,-0.12,0.17
4.084,0.06,-0.04,-0.33,0.34
4.094,-0.09,0.20,0.27,0.35
4.104,-0.13,-0.10,0.38,0.42
4.114,-0.04,-0.25,0.06,0.26
4.124,0.05,-0.14,-0.00,0.15
4.134,0.05,0.14,0.07,0.17
4.144,-0.08,0.08,0.47,0.48
4.154,0.00,-0.19,0.34,0.39
4.164,0.03,-0.10,-0.02,0.10
4.174,0.08,0.09,0.00,0.12
4.184,-0.10,0.23,0.36,0.44
4.194,-0.04,-0.06,0.22,0.23
4.204,-0.05,-0.17,-0.21,0.27
4.214,0.06,-0.07,-0.21,0.23
4.224,-0.07,0.10,0.21,0.24
4.234,-0.14,-0.13,0.21,0.28
4.244,-0.03,-0.28,0.07,0.29
4.254,0.04,-0.13,-0.00,0.14
4.264,0.04,0.10,0.20,0.23
4.274,-0.07,0.08,0.41,0.42
4.284,0.00,-0.15,0.10,0.18
4.294,0.02,-0.13,0.03,0.13
4.304,0.03,0.13,-0.10,0.17
4.314,-0.10,0.18,0.15,0.26
4.324,-0.03,-0.11,0.17,0.20
4.333,-0.08,-0.14,-0.14,0.22
4.344,0.09,-0.13,-0.14,0.21
4.353,-0.13,0.06,0.23,0.27
4.364,-0.12,-0.14,0.24,0.30
4.373,-0.03,-0.25,0.29,0.38
4.383,0.05,-0.15,0.05,0.16
4.394,0.04,0.05,0.13,0.15
4.404,-0.12,0.11,0.44,0.46
4.413,-0.00,-0.05,0.06,0.08
4.423,-0.04,-0.11,-0.07,0.14
4.434,0.09,0.08,-0.30,0.32
4.444,-0.08,0.12,0.22,0.26
4.453,-0.08,-0.10,0.25,0.28
4.463,-0.07,-0.23,-0.16,0.28
4.473,0.03,-0.12,-0.10,0.15
4.484,-0.12,0.19,0.26,0.34
4.493,-0.15,-0.13,0.42,0.47
4.503,-0.01,-0.21,0.24,0.32
4.513,0.06,-0.03,-0.01,0.06
4.523,0.11,0.14,-0.09,0.20
4.533,-0.14,0.16,0.53,0.57
4.543,-0.18,0.06,0.19,0.27
4.553,-0.14,0.04,-0.04,0.15
4.563,0.14,0.04,-0.11,0.18
4.573,-0.01,-0.08,0.09,0.12
4.583,-0.12,-0.21,0.13,0.28
4.593,-0.07,-0.23,-0.12,0.27
4.603,0.10,-0.25,-0.10,0.28
4.613,0.00,-0.09,0.23,0.24
4.623,-0.12,-0.09,0.30,0.33
4.633,-0.01,-0.24,0.07,0.26
4.643,0.03,-0.11,-0.06,0.13
4.653,0.05,0.04,0.11,0.12
4.663,-0.10,0.10,0.35,0.38
4.673,-0.05,-0.04,0.03,0.07
4.683,-0.02,-0.16,-0.04,0.16
4.693,0.02,0.06,-0.21,0.22
4.703,-0.15,0.02,0.17,0.23
4.713,-0.10,-0.09,0.20,0.24
4.723,-0.07,-0.30,-0.12,0.33
4.733,0.02,-0.10,-0.06,0.12
4.743,-0.04,0.10,0.38,0.40
4.753,-0.11,-0.07,0.40,0.42
4.763,-0.01,-0.20,0.12,0.23
4.773,0.03,-0.12,-0.03,0.12
4.783,0.07,0.12,0.05,0.15
4.793,-0.11,0.11,0.31,0.35
4.803,-0.03,-0.09,0.08,0.12
4.813,-0.05,-0.22,-0.03,0.22
4.823,0.08,-0.09,-0.17,0.21
4.833,-0.15,0.02,0.19,0.24
4.843,-0.13,-0.12,0.05,0.18
4.853,-0.07,-0.33,-0.04,0.34
4.863,0.08,-0.24,-0.05,0.25
4.873,-0.05,0.00,0.18,0.19
4.883,-0.11,-0.06,0.48,0.49
4.893,-0.05,-0.16,0.04,0.17
4.903,0.02,-0.18,-0.06,0.19
4.913,0.06,0.16,0.07,0.19
4.923,-0.13,0.21,0.25,0.35
4.933,-0.03,-0.09,0.20,0.22
4.943,0.10,-0.03,-0.50,0.51
4.953,0.04,-0.08,-0.29,0.30
4.963,-0.22,0.03,0.79,0.82
4.973,-0.16,-0.05,0.53,0.56
4.983,-0.10,-0.28,-0.09,0.31
4.993,0.08,-0.15,0.06,0.18
5.003,-0.03,-0.01,0.17,0.17
5.013,-0.09,-0.05,0.45,0.47
5.023,-0.04,-0.15,0.17,0.23
5.033,-0.00,-0.17,-0.10,0.20
5.043,0.09,0.02,0.15,0.18
5.053,-0.13,0.20,0.27,0.36
5.062,-0.05,-0.18,0.11,0.21
5.072,-0.09,-0.17,-0.06,0.20
5.083,0.07,-0.17,-0.15,0.24
5.092,-0.12,0.00,0.24,0.27
5.103,-0.16,-0.15,0.26,0.34
5.113,-0.06,-0.32,0.02,0.33
5.122,0.05,-0.17,-0.06,0.19
5.133,-0.02,0.13,0.16,0.21
5.142,-0.13,0.03,0.42,0.44
5.152,-0.02,-0.15,0.17,0.23
5.162,0.01,-0.07,0.02,0.08
5.172,0.08,0.07,0.08,0.14
5.182,-0.14,0.12,0.32,0.36
5.192,-0.10,-0.12,0.14,0.21
5.202,-0.06,-0.21,-0.08,0.23
5.212,0.05,-0.15,-0.18,0.24
5.222,-0.13,0.06,0.21,0.26
5.232,-0.12,-0.10,0.28,0.32
5.242,-0.04,-0.30,0.13,0.33
5.252,0.08,-0.24,0.03,0.25
5.262,0.03,0.08,0.22,0.23
5.272,-0.12,0.05,0.44,0.46
5.282,-0.02,-0.10,0.24,0.26
5.292,0.01,-0.17,-0.03,0.18
5.302,0.08,0.00,0.05,0.09
5.312,-0.15,0.20,0.40,0.47
5.322,-0.09,-0.13,0.14,0.21
5.332,-0.08,-0.23,-0.11,0.27
5.342,0.03,-0.17,-0.12,0.20
5.352,-0.09,0.01,0.25,0.26
5.362,-0.11,-0.12,0.36,0.39
5.372,-0.02,-0.30,0.13,0.33
5.382,0.02,-0.25,0.02,0.25
5.392,0.03,0.04,0.24,0.25
5.402,-0.12,0.07,0.56,0.57
5.412,-0.07,-0.12,0.20,0.24
5.422,-0.06,-0.16,-0.12,0.21
5.432,0.05,0.07,-0.03,0.09
5.442,-0.13,0.05,0.31,0.34
5.452,-0.09,-0.19,0.18,0.28
5.462,-0.08,-0.26,-0.14,0.31
5.472,0.05,-0.24,-0.04,0.25
5.482,-0.09,0.03,0.30,0.31
5.492,-0.11,-0.10,0.35,0.38
5.502,-0.06,-0.30,0.23,0.38
5.512,0.04,-0.16,0.01,0.16
5.522,0.06,-0.01,0.31,0.31
5.532,-0.12,0.09,0.43,0.46
5.542,-0.01,-0.19,0.27,0.33
5.552,-0.05,-0.14,-0.05,0.15
5.562,0.05,-0.06,-0.03,0.08
5.572,-0.13,0.16,0.32,0.38
5.582,-0.12,-0.20,0.27,0.35
5.592,-0.09,-0.31,-0.02,0.32
5.602,0.03,-0.25,-0.02,0.25
5.612,-0.08,0.00,0.34,0.35
5.622,-0.11,-0.10,0.45,0.48
5.632,-0.02,-0.32,0.26,0.41
5.642,0.01,-0.24,0.04,0.24
5.652,0.06,0.06,0.14,0.17
5.662,-0.17,0.09,0.39,0.44
5.672,-0.33,0.03,0.19,0.38
5.682,-0.19,0.05,-0.16,0.26
5.691,0.15,-0.18,-0.18,0.29
5.701,0.06,-0.20,0.32,0.38
5.712,-0.05,-0.35,0.22,0.42
5.722,-0.14,-0.33,0.00,0.36
5.732,0.05,-0.21,0.00,0.21
5.741,0.02,-0.10,0.24,0.26
5.751,-0.08,-0.06,0.48,0.49
5.762,-0.02,-0.21,0.15,0.26
5.771,0.01,-0.22,-0.09,0.24
5.782,0.03,0.09,0.03,0.10
5.791,-0.15,0.13,0.37,0.42
5.802,-0.06,-0.30,0.28,0.42
5.812,-0.08,-0.25,-0.05,0.27
5.821,0.05,-0.13,-0.10,0.17
5.831,-0.16,0.08,0.28,0.33
5.841,-0.13,-0.19,0.33,0.40
5.851,-0.12,-0.36,0.07,0.38
5.861,-0.04,-0.22,-0.13,0.26
5.871,0.06,0.07,0.38,0.39
5.881,-0.09,-0.03,0.44,0.45
5.891,-0.02,-0.28,0.19,0.34
5.901,-0.01,-0.21,-0.02,0.21
5.911,0.05,0.05,0.03,0.08
5.921,-0.10,0.11,0.32,0.35
5.931,-0.12,-0.19,0.19,0.30
5.941,-0.22,-0.19,-0.13,0.32
5.951,-0.08,-0.01,-0.15,0.18
5.962,-0.03,-0.12,0.18,0.22
5.971,0.00,-0.21,0.32,0.38
5.981,-0.08,-0.35,0.22,0.42
5.991,0.05,-0.31,0.03,0.31
6.001,-0.02,0.08,0.18,0.20
6.011,-0.12,-0.06,0.42,0.44
6.021,-0.02,-0.20,0.38,0.42
6.031,-0.03,-0.19,-0.08,0.21
6.041,0.03,-0.03,0.08,0.09
6.051,-0.17,0.25,0.40,0.50
6.061,-0.08,-0.31,0.29,0.44
6.071,-0.08,-0.27,-0.03,0.29
6.081,-0.03,-0.14,-0.10,0.18
6.091,-0.12,0.02,0.22,0.25
6.101,-0.12,-0.18,0.41,0.46
6.111,-0.05,-0.30,0.14,0.33
6.121,0.01,-0.28,-0.06,0.29
6.131,0.01,0.08,0.18,0.20
6.141,-0.09,0.11,0.48,0.50
6.151,-0.06,-0.35,0.24,0.43
6.161,0.01,-0.21,0.08,0.22
6.171,0.02,-0.01,0.04,0.05
6.181,-0.17,0.04,0.29,0.34
6.191,-0.33,-0.16,0.85,0.93
6.201,-0.13,-0.41,0.28,0.51
6.211,-0.21,-0.27,-0.08,0.35
6.221,0.06,0.22,-0.00,0.23
6.231,0.26,-0.09,-0.16,0.32
6.241,0.00,-0.34,0.21,0.39
6.251,-0.07,-0.20,0.29,0.37
6.261,-0.02,0.02,0.09,0.10
6.271,-0.01,0.07,0.40,0.40
6.281,-0.10,-0.11,0.24,0.29
6.291,-0.08,-0.37,0.03,0.38
6.301,-0.09,-0.03,0.00,0.10
6.311,0.11,0.22,-0.01,0.25
6.321,-0.20,-0.18,-0.02,0.27
6.331,-0.17,-0.23,-0.03,0.29
6.341,0.06,-0.26,-0.00,0.27
6.351,-0.02,-0.01,0.42,0.42
6.361,-0.06,-0.02,0.40,0.40
6.371,-0.03,-0.33,0.15,0.37
6.381,0.02,-0.20,0.08,0.22
6.391,-0.05,0.12,-0.05,0.14
6.401,-0.01,0.03,0.54,0.54
6.411,-0.05,-0.10,0.13,0.18
6.421,-0.03,-0.28,-0.24,0.37
6.431,-0.01,0.05,-0.04,0.07
6.440,-0.17,0.10,0.31,0.37
6.450,-0.15,-0.20,0.08,0.26
6.460,-0.06,-0.37,0.17,0.42
6.470,-0.01,-0.11,0.00,0.11
6.481,-0.11,0.01,0.21,0.24
6.490,-0.10,-0.07,0.45,0.47
6.501,-0.02,-0.14,0.17,0.22
6.510,0.02,-0.31,-0.11,0.33
6.520,0.03,0.09,0.20,0.22
6.530,-0.16,0.13,0.16,0.26
6.540,-0.01,-0.19,0.22,0.29
6.550,-0.08,-0.16,-0.20,0.27
6.560,-0.05,-0.06,-0.06,0.10
6.570,-0.16,0.08,0.36,0.40
6.580,-0.12,-0.12,0.31,0.35
6.590,-0.09,-0.29,0.03,0.31
6.600,0.00,-0.19,0.16,0.24
6.610,-0.04,0.07,0.09,0.12
6.620,-0.13,-0.11,0.09,0.19
6.630,0.08,-0.10,0.10,0.16
6.640,0.09,-0.14,-0.34,0.38
6.650,0.04,0.01,-0.24,0.25
6.660,-0.23,-0.01,0.34,0.41
6.670,-0.15,-0.08,0.29,0.34
6.680,-0.15,-0.17,0.24,0.34
6.690,0.12,-0.09,0.02,0.15
6.700,-0.18,0.16,0.43,0.49
6.710,-0.13,-0.20,0.29,0.37
6.720,-0.09,-0.27,0.01,0.28
6.730,0.04,-0.24,0.02,0.24
6.740,-0.08,0.07,0.02,0.11
6.750,-0.11,-0.08,0.54,0.55
6.760,-0.03,-0.24,0.23,0.34
6.770,0.00,-0.19,-0.10,0.22
6.780,0.05,0.08,0.07,0.12
6.790,-0.17,0.10,0.25,0.32
6.800,-0.06,-0.11,0.07,0.15
6.810,-0.08,-0.20,-0.11,0.25
6.820,0.03,-0.16,-0.11,0.20
6.830,-0.15,0.07,0.19,0.25
6.840,-0.11,-0.16,0.36,0.41
6.850,-0.07,-0.28,-0.05,0.29
6.860,0.05,-0.22,0.08,0.23
6.870,-0.08,0.10,0.17,0.21
6.880,-0.09,-0.06,0.32,0.34
6.890,-0.01,-0.12,0.12,0.17
6.900,0.01,-0.18,-0.00,0.18
6.910,-0.10,0.22,-0.11,0.27
6.920,-0.12,-0.03,0.28,0.30
6.930,-0.01,-0.17,0.21,0.27
6.940,-0.08,-0.24,-0.08,0.26
6.950,-0.03,-0.11,-0.10,0.16
6.960,-0.12,-0.01,0.24,0.27
6.970,-0.08,-0.16,0.36,0.40
6.980,-0.04,-0.28,0.08,0.29
6.990,0.04,-0.29,-0.03,0.30
7.000,-0.02,0.00,0.09,0.09
7.010,-0.11,0.03,0.23,0.26
7.020,0.01,-0.19,0.16,0.25
7.030,-0.00,-0.16,-0.22,0.27
7.039,0.04,-0.03,-0.06,0.08
7.050,-0.19,0.11,0.35,0.41
7.060,-0.12,-0.01,0.10,0.16
7.069,-0.07,-0.34,-0.09,0.35
7.080,-0.12,-0.24,0.11,0.29
7.089,-0.60,-0.29,0.61,0.91
7.099,-0.12,-0.13,0.49,0.52
7.110,-0.09,0.28,0.38,0.48
7.119,0.00,-0.00,-0.03,0.03
7.129,0.15,-0.09,-0.28,0.34
7.139,0.24,-0.15,0.04,0.28
7.149,-0.05,0.13,-0.26,0.30
7.159,0.19,-0.34,-0.56,0.68
7.169,-0.04,-0.01,0.09,0.10
7.179,-0.10,-0.05,0.20,0.23
7.189,-0.12,-0.07,0.12,0.19
7.199,-0.11,-0.21,0.13,0.26
7.209,-0.04,-0.17,-0.08,0.20
7.219,-0.06,-0.05,0.23,0.24
7.229,-0.09,-0.08,0.42,0.43
7.239,-0.02,-0.29,0.12,0.31
7.249,0.02,-0.20,0.00,0.20
7.259,-0.03,0.03,-0.08,0.09
7.269,-0.09,0.03,0.50,0.51
7.279,-0.06,-0.08,0.14,0.17
7.289,-0.02,-0.23,-0.22,0.32
7.299,-0.01,0.01,-0.25,0.25
7.309,-0.14,0.14,0.07,0.20
7.319,-0.10,-0.15,0.34,0.38
7.329,-0.06,-0.28,0.14,0.32
7.339,-0.02,-0.29,-0.15,0.33
7.349,-0.08,0.06,0.18,0.20
7.359,-0.14,-0.11,0.37,0.41
7.369,-0.03,-0.26,0.28,0.38
7.379,0.03,-0.16,-0.04,0.17
7.389,0.08,-0.05,-0.28,0.30
7.399,-0.19,0.11,0.43,0.49
7.409,-0.12,-0.13,0.27,0.32
7.419,-0.03,-0.21,-0.06,0.22
7.429,0.02,-0.09,-0.05,0.11
7.439,-0.17,0.04,0.21,0.27
7.449,-0.13,-0.13,0.20,0.27
7.459,-0.07,-0.33,0.08,0.34
7.469,-0.00,-0.20,-0.11,0.22
7.479,-0.21,-0.38,-0.04,0.44
7.489,-0.20,-0.12,0.19,0.31
7.499,-0.01,-0.10,0.22,0.25
7.509,0.09,0.00,0.20,0.22
7.519,0.07,0.07,0.20,0.22
7.529,-0.13,0.10,0.26,0.31
7.539,0.00,-0.03,0.17,0.17
7.549,-0.00,-0.17,0.01,0.17
7.559,0.05,-0.11,-0.10,0.15
7.569,-0.14,0.04,0.17,0.23
7.579,-0.11,-0.14,0.31,0.36
7.589,-0.07,-0.22,0.03,0.23
7.599,-0.03,-0.31,-0.08,0.33
7.609,-0.10,0.04,0.22,0.24
7.619,-0.14,-0.14,0.34,0.39
7.629,0.00,-0.19,0.17,0.26
7.639,-0.00,-0.13,0.02,0.13
7.649,0.01,-0.07,0.02,0.07
7.659,-0.14,0.16,0.27,0.34
7.669,-0.07,-0.11,0.16,0.21
7.679,-0.04,-0.20,-0.05,0.21
7.689,-0.00,-0.14,-0.11,0.17
7.699,-0.15,0.08,0.17,0.24
7.709,-0.12,-0.12,0.28,0.33
7.719,-0.06,-0.28,0.11,0.31
7.729,0.04,-0.24,0.02,0.24
7.739,-0.06,-0.09,0.12,0.16
7.749,-0.11,0.09,0.27,0.31
7.758,-0.04,-0.17,0.13,0.21
7.769,0.00,-0.14,-0.10,0.17
7.779,0.01,-0.05,-0.02,0.05
7.788,-0.14,0.13,0.19,0.27
7.799,-0.08,-0.06,0.09,0.13
7.808,-0.06,-0.20,0.02,0.21
7.819,0.03,-0.18,-0.07,0.20
7.828,-0.17,-0.01,0.09,0.19
7.838,-0.12,-0.07,0.31,0.34
7.848,-0.07,-0.19,0.17,0.26
7.858,0.05,-0.27,-0.00,0.27
7.869,-0.03,0.04,0.07,0.09
7.878,-0.12,-0.02,0.36,0.38
7.888,-0.04,-0.05,0.09,0.11
7.898,-0.03,-0.12,-0.05,0.13
7.908,-0.00,-0.10,-0.00,0.10
7.918,-0.16,0.11,0.24,0.30
7.928,-0.08,-0.11,0.19,0.23
7.938,-0.06,-0.18,-0.02,0.19
7.948,-0.01,-0.18,-0.13,0.22
7.958,-0.08,0.01,0.21,0.23
7.968,-0.15,-0.13,0.27,0.34
7.978,-0.08,-0.22,0.03,0.24
7.988,-0.00,-0.28,-0.01,0.28
7.998,-0.05,-0.04,0.06,0.09
8.008,-0.09,0.03,0.37,0.38
8.018,-0.05,-0.18,0.18,0.26
8.028,-0.00,-0.15,-0.19,0.24
8.038,0.01,-0.08,-0.01,0.08
8.048,-0.17,0.16,0.23,0.33
8.058,-0.10,-0.14,0.16,0.24
8.068,-0.11,-0.21,0.04,0.24
8.078,0.02,-0.28,-0.11,0.30
8.088,-0.12,-0.04,0.16,0.21
8.098,-0.12,-0.06,0.22,0.26
8.108,-0.05,-0.24,0.19,0.31
8.118,0.00,-0.24,-0.07,0.25
8.128,-0.01,0.00,0.01,0.01
8.138,-0.15,0.06,0.28,0.32
8.148,-0.01,-0.07,0.08,0.11
8.158,-0.04,-0.17,-0.04,0.19
8.168,0.04,-0.13,0.00,0.13
8.178,-0.16,0.07,0.16,0.24
8.188,-0.06,-0.15,0.20,0.25
8.198,-0.09,-0.23,-0.09,0.26
8.208,0.04,-0.30,-0.04,0.30
8.218,-0.11,0.05,0.12,0.17
8.228,-0.15,-0.17,0.14,0.27
8.238,-0.03,-0.20,0.10,0.22
8.248,-0.02,-0.16,-0.06,0.18
8.258,-0.02,-0.04,-0.04,0.06
8.268,-0.14,0.07,0.32,0.36
8.278,-0.06,-0.14,0.13,0.20
8.288,-0.01,-0.19,-0.14,0.24
8.298,0.04,-0.12,-0.07,0.14
8.308,-0.16,0.15,0.23,0.32
8.318,-0.10,-0.18,0.14,0.25
8.328,-0.09,-0.28,-0.00,0.29
8.338,0.02,-0.22,-0.06,0.23
8.348,-0.10,-0.02,0.15,0.18
8.358,-0.16,-0.07,0.19,0.26
8.368,-0.00,-0.15,0.14,0.21
8.378,0.02,-0.26,-0.09,0.28
8.388,-0.01,-0.01,-0.02,0.03
8.398,-0.13,0.13,0.26,0.32
8.408,-0.04,-0.15,0.07,0.17
8.418,-0.04,-0.18,-0.00,0.18
8.428,0.02,-0.08,-0.03,0.09
8.437,-0.20,-0.01,0.04,0.20
8.448,-0.10,-0.15,0.21,0.28
8.458,-0.03,-0.14,0.04,0.14
8.467,0.02,-0.40,-0.18,0.44
8.477,-0.09,-0.02,0.01,0.10
8.488,-0.15,-0.00,0.24,0.28
8.497,-0.02,-0.25,0.11,0.27
8.507,0.01,-0.17,-0.05,0.17
8.518,0.03,0.00,-0.12,0.13
8.528,-0.15,0.10,0.21,0.28
8.537,-0.06,-0.03,0.14,0.16
8.548,-0.05,-0.17,-0.18,0.26
8.557,0.06,-0.21,-0.19,0.29
8.567,-0.15,0.07,0.19,0.25
8.577,-0.14,-0.17,-0.01,0.22
8.587,-0.05,-0.33,-0.01,0.33
8.597,0.01,-0.16,-0.06,0.17
8.607,-0.09,-0.07,-0.02,0.11
8.617,-0.14,-0.05,0.26,0.30
8.627,-0.02,-0.14,0.13,0.20
8.637,0.03,-0.21,-0.09,0.23
8.647,0.02,-0.03,-0.05,0.06
8.657,-0.18,0.16,0.20,0.32
8.667,-0.29,-0.15,-0.06,0.33
8.677,-0.01,-0.13,-0.20,0.24
8.687,0.21,-0.20,-0.03,0.29
8.697,-0.17,-0.02,0.01,0.17
8.707,-0.20,-0.14,0.12,0.27
8.717,-0.05,-0.27,0.08,0.29
8.727,0.07,-0.20,-0.12,0.25
8.737,-0.02,-0.07,0.05,0.09
8.747,-0.18,0.01,0.27,0.32
8.757,-0.04,-0.13,0.05,0.14
8.767,0.06,-0.13,-0.06,0.16
8.777,0.00,-0.05,-0.18,0.19
8.787,-0.16,0.08,0.07,0.19
8.797,-0.11,-0.10,0.10,0.18
8.807,-0.00,-0.26,-0.02,0.26
8.817,0.02,-0.19,-0.17,0.26
8.827,-0.19,-0.10,0.09,0.23
8.837,-0.13,-0.27,0.17,0.34
8.847,-0.05,-0.16,-0.06,0.18
8.857,0.06,-0.13,-0.12,0.19
8.867,-0.04,-0.14,-0.04,0.15
8.877,-0.10,0.10,0.14,0.20
8.887,0.02,-0.08,0.25,0.26
8.897,0.00,0.04,-0.07,0.08
8.907,0.02,-0.11,-0.17,0.20
8.917,-0.14,-0.08,0.07,0.17
8.927,-0.08,-0.07,0.01,0.11
8.937,-0.07,-0.20,-0.15,0.26
8.947,-0.01,-0.19,-0.13,0.23
8.957,-0.20,-0.13,0.01,0.24
8.967,-0.16,-0.16,0.18,0.29
8.977,-0.02,-0.19,0.04,0.20
8.987,0.04,-0.13,-0.06,0.15
8.997,0.04,-0.04,-0.06,0.09
9.007,0.02,-0.13,0.24,0.28
9.017,0.01,-0.01,0.01,0.02
9.027,0.06,-0.09,-0.07,0.13
9.037,0.04,-0.08,-0.08,0.12
9.047,-0.15,-0.20,0.13,0.28
9.057,-0.32,-0.04,0.01,0.32
9.067,-0.13,-0.14,-0.13,0.23
9.077,-0.01,-0.13,-0.12,0.18
9.087,-0.16,-0.18,-0.29,0.38
9.097,-0.15,-0.13,-0.08,0.21
9.107,-0.04,0.03,0.12,0.13
9.117,0.07,-0.15,0.03,0.17
9.127,-0.00,-0.13,-0.08,0.16
9.137,-0.16,0.04,0.08,0.18
9.146,0.01,-0.19,0.04,0.20
9.156,-0.03,-0.16,-0.15,0.22
9.166,-0.01,0.04,-0.08,0.09
9.176,-0.18,-0.50,-0.03,0.53
9.186,-0.11,0.03,0.10,0.15
9.196,-0.12,-0.27,-0.02,0.30
9.206,-0.01,-0.09,-0.16,0.19
9.216,-0.08,-0.33,-0.04,0.34
9.226,-0.11,-0.05,0.27,0.30
9.236,-0.07,-0.17,-0.19,0.26
9.246,0.01,-0.09,-0.15,0.17
9.256,0.01,0.02,-0.17,0.17
9.266,-0.16,-0.12,0.12,0.23
9.276,-0.09,0.18,-0.04,0.20
9.286,-0.05,-0.18,-0.22,0.29
9.296,-0.01,0.03,-0.30,0.30
9.306,-0.21,-0.16,0.08,0.28
9.316,-0.12,-0.18,0.06,0.23
9.326,-0.05,-0.25,-0.08,0.27
9.336,0.04,-0.29,-0.16,0.33
9.346,-0.12,-0.13,-0.20,0.26
9.356,-0.15,-0.08,0.17,0.24
9.366,-0.03,-0.10,0.15,0.19
9.376,0.05,-0.14,-0.23,0.27
9.386,-0.00,0.01,-0.17,0.17
9.396,-0.18,0.05,0.10,0.22
9.406,-0.05,-0.10,-0.04,0.12
9.416,-0.07,-0.12,-0.19,0.23
9.426,0.03,-0.10,-0.13,0.17
9.436,-0.16,-0.17,-0.10,0.25
9.446,-0.13,-0.10,-0.11,0.20
9.456,-0.05,-0.14,0.03,0.15
9.466,0.07,-0.32,-0.10,0.34
9.476,-0.07,-0.16,-0.20,0.27
9.486,-0.14,-0.02,0.08,0.17
9.496,-0.02,-0.13,0.03,0.14
9.506,0.01,-0.20,-0.28,0.35
9.516,-0.04,-0.03,-0.30,0.31
9.526,-0.18,-0.01,0.12,0.22
9.536,-0.09,-0.12,0.08,0.17
9.546,-0.06,-0.21,-0.30,0.38
9.556,0.02,-0.09,-0.19,0.21
9.566,-0.14,-0.11,0.03,0.18
9.576,-0.12,-0.23,0.01,0.26
9.586,-0.05,-0.13,-0.10,0.17
9.596,0.03,-0.23,-0.17,0.29
9.606,-0.08,-0.10,-0.14,0.19
9.616,-0.17,0.06,0.02,0.18
9.626,-0.02,-0.13,0.03,0.14
9.636,-0.03,-0.17,-0.18,0.25
9.646,0.05,-0.03,-0.19,0.19
9.656,-0.19,-0.01,0.06,0.20
9.666,-0.08,-0.09,0.01,0.12
9.676,-0.05,-0.14,-0.23,0.27
9.686,-0.01,-0.28,-0.27,0.39
9.696,-0.14,0.00,-0.10,0.17
9.706,-0.14,-0.26,0.05,0.30
9.716,-0.06,-0.15,-0.06,0.17
9.726,-0.01,-0.31,-0.18,0.36
9.736,-0.06,-0.10,-0.07,0.13
9.746,-0.12,-0.05,0.11,0.17
9.756,-0.01,-0.02,0.11,0.11
9.766,0.01,-0.18,-0.16,0.24
9.776,-0.00,0.00,-0.26,0.26
9.786,-0.17,-0.03,-0.13,0.21
9.795,-0.15,-0.09,-0.03,0.17
9.806,-0.07,-0.20,-0.23,0.31
9.816,-0.02,-0.19,-0.30,0.35
9.826,-0.17,-0.15,-0.04,0.23
9.835,-0.11,-0.13,0.48,0.51
9.845,-0.02,-0.27,0.38,0.47
9.856,0.04,-0.20,0.00,0.20
9.865,0.07,0.24,-0.29,0.38
9.875,-0.22,-0.22,-0.56,0.64
9.885,-0.07,-0.17,-0.11,0.21
9.895,-0.00,-0.16,-0.25,0.29
9.905,0.01,-0.08,-0.18,0.20
9.915,-0.18,-0.03,0.03,0.18
9.925,-0.11,-0.19,0.03,0.22
9.935,-0.01,-0.16,0.00,0.16
9.945,0.02,-0.28,-0.09,0.30
9.955,-0.09,-0.13,0.01,0.16
9.966,-0.15,-0.09,0.18,0.25
9.975,-0.00,-0.21,0.06,0.22
9.985,0.09,-0.10,0.04,0.14
9.995,-0.00,-0.14,-0.14,0.20
10.005,-0.14,0.04,0.21,0.25
10.015,-0.04,-0.01,-0.04,0.06
10.025,0.00,-0.14,-0.02,0.14
10.035,0.05,-0.07,-0.05,0.10
10.045,-0.19,-0.07,0.00,0.20
10.055,-0.17,0.02,-0.06,0.18
10.065,-0.08,-0.24,0.01,0.26
10.075,0.02,-0.30,-0.08,0.31
10.085,-0.09,-0.19,0.12,0.24
10.095,-0.15,-0.15,0.32,0.38
10.105,0.04,-0.15,0.15,0.22
10.115,0.08,-0.17,0.13,0.23
10.125,0.02,0.02,-0.06,0.06
10.135,-0.14,0.01,0.08,0.15
10.145,-0.10,-0.03,-0.03,0.11
10.155,-0.02,-0.12,-0.15,0.19
10.165,-0.02,-0.16,-0.16,0.23
10.175,-0.16,-0.04,0.07,0.18
10.185,-0.18,-0.20,0.12,0.30
10.195,-0.02,-0.22,0.05,0.23
10.205,0.02,-0.24,0.02,0.24
10.215,-0.05,-0.09,0.12,0.16
10.225,-0.11,-0.05,0.30,0.32
10.235,0.01,-0.14,0.21,0.25
10.245,-0.02,-0.17,-0.13,0.21
10.255,0.05,-0.07,0.08,0.12
10.265,-0.19,0.06,0.17,0.26
10.275,0.00,-0.14,0.11,0.18
10.285,-0.06,-0.15,-0.07,0.18
10.295,0.08,-0.20,-0.13,0.24
10.305,-0.16,-0.03,0.01,0.16
10.315,-0.09,-0.15,0.14,0.22
10.325,-0.09,-0.17,-0.12,0.22
10.335,0.06,-0.24,0.07,0.25
10.345,-0.09,0.04,0.03,0.10
10.355,-0.17,-0.13,0.23,0.31
10.365,0.01,-0.06,0.10,0.11
10.375,-0.07,-0.08,0.09,0.14
10.385,-0.19,0.36,-0.04,0.41
10.395,-0.11,-0.28,0.16,0.34
10.405,0.04,-0.16,0.26,0.31
10.415,-0.13,-0.25,0.01,0.28
10.424,-0.10,-0.05,-0.03,0.12
10.435,-0.20,-0.16,-0.01,0.26
10.445,-0.14,-0.09,0.05,0.18
10.455,-0.39,-0.34,0.06,0.52
10.464,0.47,-0.17,-0.00,0.49
10.475,0.51,-0.20,0.15,0.57
10.485,-0.20,-0.21,0.28,0.40
10.494,0.01,0.05,0.07,0.09
10.504,0.07,-0.12,0.27,0.31
10.515,-0.05,-0.08,0.11,0.14
10.524,-0.19,-0.16,0.15,0.29
10.535,-0.10,-0.15,0.07,0.19
10.545,-0.09,-0.22,-0.08,0.25
10.554,0.08,-0.22,-0.08,0.25
10.565,-0.12,-0.13,0.02,0.18
10.574,-0.09,-0.19,0.14,0.25
10.585,-0.00,-0.14,0.07,0.15
10.594,0.05,-0.31,0.10,0.33
10.604,0.01,-0.03,0.19,0.19
10.615,-0.16,-0.07,0.24,0.30
10.624,-0.01,-0.09,0.07,0.12
10.634,-0.00,-0.13,0.09,0.16
10.644,0.05,0.11,-0.07,0.14
10.654,-0.18,-0.08,0.09,0.22
10.664,-0.04,-0.25,0.15,0.30
10.674,-0.03,-0.24,0.16,0.29
10.684,0.06,-0.32,0.03,0.32
10.694,-0.13,0.02,0.06,0.15
10.704,-0.12,-0.19,0.32,0.39
10.714,-0.01,-0.15,0.20,0.25
10.724,0.06,-0.28,0.03,0.29
10.734,0.29,0.01,-0.76,0.81
10.744,-0.02,0.06,0.15,0.16
10.754,-0.02,0.06,0.25,0.25
10.764,0.01,-0.12,0.22,0.25
10.774,0.11,-0.00,-0.03,0.12
10.784,-0.17,-0.00,0.21,0.27
10.794,-0.09,-0.11,0.17,0.22
10.804,-0.12,-0.28,0.24,0.38
10.814,-0.04,-0.24,0.13,0.28
10.824,-0.20,-0.10,0.20,0.30
10.834,-0.22,-0.24,0.32,0.46
10.844,0.01,-0.11,0.40,0.42
10.854,0.08,-0.26,0.20,0.34
10.864,0.02,-0.11,0.05,0.13
10.874,-0.17,0.01,0.11,0.20
10.884,-0.04,-0.00,0.11,0.12
10.894,-0.03,-0.10,-0.01,0.10
10.904,0.06,-0.14,-0.05,0.16
10.914,-0.19,-0.12,-0.07,0.23
10.924,-0.12,-0.19,0.05,0.23
10.934,-0.06,-0.20,0.03,0.22
10.944,0.07,-0.35,0.07,0.36
10.954,-0.09,-0.16,0.01,0.18
10.964,-0.11,-0.26,0.18,0.34
10.974,-0.04,-0.05,-0.01,0.06
10.984,0.06,-0.16,-0.03,0.17
10.994,0.04,-0.06,-0.09,0.11
11.004,-0.11,-0.06,0.05,0.14
11.014,-0.06,-0.05,-0.04,0.09
11.024,-0.05,-0.13,-0.09,0.17
11.034,-0.01,-0.22,-0.09,0.24
11.044,-0.17,-0.09,-0.06,0.20
11.054,-0.11,-0.37,0.02,0.39
11.064,-0.04,-0.20,-0.07,0.22
11.074,0.04,-0.35,-0.21,0.41
11.084,-0.07,-0.12,-0.08,0.16
11.094,-0.18,-0.18,0.15,0.30
11.104,-0.01,-0.20,0.05,0.20
11.114,0.02,-0.27,-0.04,0.28
11.124,0.03,-0.08,-0.04,0.09
11.134,-0.20,-0.01,-0.01,0.20
11.144,-0.06,-0.04,-0.04,0.08
11.154,-0.04,-0.30,-0.07,0.31
11.163,0.01,-0.26,-0.33,0.42
11.173,-0.16,-0.23,-0.16,0.32
11.184,-0.17,-0.23,0.01,0.29
11.193,-0.05,-0.35,-0.12,0.37
11.204,0.04,-0.45,-0.15,0.47
11.213,-0.09,-0.15,-0.21,0.27
11.223,-0.14,-0.12,0.07,0.19
11.234,-0.02,-0.13,-0.04,0.14
11.244,0.07,-0.18,0.02,0.20
11.254,0.02,-0.17,-0.05,0.18
11.263,-0.16,-0.14,-0.03,0.21
11.273,-0.06,-0.15,-0.04,0.17
11.283,-0.02,-0.27,-0.08,0.28
11.293,0.01,-0.32,-0.12,0.35
11.303,-0.13,-0.20,-0.03,0.24
11.313,-0.17,-0.24,0.08,0.30
11.323,-0.02,-0.23,0.08,0.24
11.333,0.04,-0.29,-0.03,0.30
11.343,-0.04,-0.22,-0.01,0.22
11.353,-0.13,-0.09,0.11,0.19
11.363,-0.02,-0.13,0.11,0.17
11.373,0.03,-0.23,0.05,0.23
11.383,0.02,-0.17,-0.09,0.19
11.393,-0.17,-0.09,0.08,0.21
11.403,-0.09,-0.17,0.04,0.20
11.413,-0.04,-0.20,-0.21,0.30
11.423,0.05,-0.27,-0.20,0.34
11.433,-0.08,-0.20,-0.00,0.22
11.443,-0.10,-0.25,0.07,0.28
11.453,0.00,-0.27,0.03,0.27
11.463,0.04,-0.31,0.08,0.32
11.473,-0.01,-0.06,0.09,0.11
11.483,-0.13,-0.14,0.16,0.25
11.493,-0.02,-0.07,0.14,0.16
11.503,-0.00,-0.16,0.13,0.20
11.513,0.05,-0.16,-0.00,0.16
11.523,-0.17,-0.08,0.05,0.19
11.533,-0.09,-0.12,0.15,0.21
11.543,-0.04,-0.24,-0.02,0.24
11.553,0.07,-0.33,-0.14,0.36
11.563,-0.08,-0.18,0.02,0.20
11.573,-0.13,-0.20,0.11,0.26
11.583,0.01,-0.20,0.01,0.20
11.593,0.04,-0.23,-0.01,0.24
11.603,0.03,-0.13,-0.09,0.16
11.613,-0.15,-0.04,0.03,0.16
11.623,-0.02,-0.06,0.02,0.06
11.633,0.01,-0.17,-0.02,0.17
11.643,0.03,-0.20,-0.19,0.27
11.653,-0.15,-0.11,-0.08,0.20
11.663,-0.10,-0.13,-0.03,0.17
11.673,-0.03,-0.24,-0.07,0.25
11.683,0.07,-0.32,-0.08,0.34
11.693,-0.06,-0.13,0.03,0.14
11.703,-0.14,-0.22,0.14,0.30
11.713,0.04,-0.14,0.03,0.15
11.723,0.04,-0.17,-0.09,0.20
11.733,0.05,-0.10,0.03,0.12
11.743,-0.16,-0.03,0.07,0.18
11.753,-0.02,-0.14,0.11,0.18
11.763,0.02,-0.10,-0.08,0.13
11.773,0.04,-0.20,-0.17,0.27
11.783,-0.14,-0.01,0.01,0.14
11.793,-0.09,-0.14,0.01,0.17
11.803,0.01,-0.30,-0.06,0.31
11.813,0.07,-0.36,-0.08,0.38
11.823,-0.05,-0.16,0.00,0.17
11.832,-0.14,-0.16,0.08,0.23
11.843,0.01,-0.13,0.09,0.16
11.853,0.07,-0.15,-0.05,0.17
11.863,0.04,-0.11,-0.09,0.15
11.873,-0.16,0.01,-0.06,0.17
11.883,-0.03,-0.08,0.08,0.11
11.893,-0.01,-0.18,-0.05,0.18
11.902,0.06,-0.26,-0.16,0.31
11.912,-0.12,-0.18,-0.07,0.23
11.922,-0.13,-0.18,-0.05,0.22
11.933,-0.01,-0.25,-0.06,0.26
11.942,0.07,-0.30,-0.01,0.31
11.952,-0.01,-0.18,0.01,0.18
11.962,-0.11,-0.18,0.08,0.23
11.972,0.01,-0.12,0.03,0.13
11.982,0.02,-0.12,-0.02,0.12
11.992,0.04,-0.09,-0.02,0.10
12.002,-0.15,-0.04,-0.01,0.15
12.012,-0.06,-0.20,0.00,0.20
12.022,-0.01,-0.25,-0.15,0.29
12.032,0.04,-0.20,-0.22,0.30
12.042,-0.12,-0.15,-0.06,0.20
12.052,-0.10,-0.27,0.07,0.30
12.062,0.00,-0.17,0.02,0.17
12.072,0.07,-0.29,-0.05,0.30
12.082,0.01,-0.04,0.02,0.05
12.092,-0.12,-0.08,0.07,0.16
12.102,0.04,-0.12,0.01,0.12
12.112,0.02,-0.20,-0.09,0.21
12.122,0.03,-0.10,-0.08,0.13
12.132,-0.16,-0.10,-0.04,0.20
12.142,-0.06,-0.10,0.01,0.12
12.152,-0.01,-0.17,-0.03,0.17
12.162,0.01,-0.44,-0.25,0.51
12.172,-0.09,-0.09,-0.11,0.17
12.182,-0.09,-0.27,-0.10,0.31
12.192,0.03,-0.20,-0.03,0.21
12.202,0.10,-0.17,-0.02,0.20
12.212,-0.01,-0.11,-0.06,0.13
12.222,-0.13,-0.07,-0.05,0.16
12.232,-0.01,-0.05,0.11,0.12
12.242,0.03,-0.01,-0.05,0.06
12.252,0.07,-0.14,-0.06,0.17
12.262,-0.12,-0.05,0.00,0.13
12.272,-0.06,-0.28,-0.04,0.29
12.282,0.01,-0.27,-0.06,0.27
12.292,0.04,-0.18,-0.16,0.24
12.302,-0.06,-0.06,0.00,0.09
12.312,-0.12,-0.17,0.00,0.21
12.322,0.04,-0.19,-0.04,0.20
12.332,0.07,-0.24,-0.01,0.25
12.342,0.06,-0.02,-0.03,0.07
12.352,-0.13,-0.09,-0.12,0.20
12.362,0.04,-0.04,-0.08,0.10
12.372,0.02,-0.09,-0.16,0.19
12.382,0.04,-0.16,-0.16,0.23
12.392,-0.15,-0.00,-0.20,0.25
12.402,-0.08,-0.25,-0.13,0.30
12.412,-0.03,-0.13,-0.15,0.20
12.422,0.07,-0.35,-0.12,0.37
12.432,-0.03,-0.09,-0.18,0.20
12.442,-0.07,-0.21,0.02,0.22
12.452,0.03,-0.08,-0.06,0.10
12.462,0.06,-0.20,-0.04,0.22
12.472,0.06,-0.00,-0.09,0.11
12.482,-0.16,-0.03,-0.08,0.18
12.492,-0.03,-0.06,-0.05,0.08
12.502,-0.01,-0.07,-0.12,0.14
12.512,0.05,-0.18,-0.15,0.24
12.521,-0.13,-0.05,-0.13,0.19
12.532,-0.10,-0.17,-0.07,0.21
12.541,-0.01,-0.17,-0.19,0.25
12.552,0.10,-0.27,-0.16,0.33
12.562,-0.04,-0.12,-0.11,0.18
12.571,-0.12,-0.22,-0.04,0.25
12.581,0.04,-0.09,-0.07,0.12
12.592,0.04,-0.18,-0.15,0.24
12.601,0.04,0.02,-0.21,0.21
12.611,-0.16,-0.06,-0.13,0.22
12.621,-0.02,-0.04,-0.14,0.15
12.632,0.00,-0.17,-0.17,0.24
12.641,0.05,-0.18,-0.22,0.29
12.651,-0.13,-0.06,-0.20,0.25
12.661,-0.13,-0.20,-0.16,0.28
12.671,0.04,-0.15,-0.12,0.20
12.681,0.06,-0.26,-0.10,0.29
12.691,0.03,-0.09,-0.07,0.12
12.701,-0.11,-0.13,-0.03,0.17
12.711,0.03,0.02,-0.11,0.11
12.721,0.02,-0.16,-0.16,0.23
12.731,0.05,0.03,-0.19,0.20
12.741,-0.15,-0.06,-0.23,0.29
12.751,-0.06,-0.08,-0.16,0.19
12.761,-0.04,-0.18,-0.15,0.24
12.771,0.03,-0.17,-0.26,0.31
12.781,-0.11,-0.21,-0.19,0.31
12.791,-0.09,-0.17,-0.13,0.23
12.801,0.02,-0.14,-0.18,0.23
12.811,0.11,-0.20,-0.20,0.30
12.821,0.01,-0.05,-0.15,0.16
12.831,-0.14,-0.12,-0.12,0.22
12.841,0.00,0.01,-0.12,0.12
12.851,0.04,-0.10,-0.15,0.18
12.861,0.04,-0.00,-0.21,0.21
12.871,-0.16,-0.03,-0.17,0.24
12.881,-0.04,-0.12,-0.08,0.15
12.891,0.03,-0.15,-0.25,0.30
12.901,0.06,-0.30,-0.24,0.39
12.911,-0.08,-0.06,-0.19,0.22
12.921,-0.10,-0.27,-0.15,0.32
12.931,0.02,-0.19,-0.11,0.22
12.941,0.10,-0.21,-0.04,0.23
12.951,-0.00,-0.11,-0.19,0.22
12.961,-0.14,-0.06,-0.26,0.30
12.971,-0.01,-0.05,-0.24,0.25
12.981,-0.00,-0.09,-0.27,0.28
12.991,0.04,-0.14,-0.21,0.26
13.001,-0.14,-0.09,-0.22,0.28
13.011,-0.11,-0.24,-0.17,0.31
13.021,-0.02,-0.21,-0.24,0.32
13.031,0.06,-0.19,-0.33,0.39
13.041,-0.05,-0.12,-0.13,0.19
13.051,-0.06,-0.14,-0.07,0.16
13.061,0.05,-0.18,-0.09,0.21
13.071,0.11,-0.19,-0.09,0.23
13.081,-0.01,-0.13,-0.11,0.17
13.091,-0.12,-0.13,0.02,0.18
13.101,-0.01,-0.05,-0.08,0.10
13.111,0.04,-0.18,-0.04,0.19
13.121,0.06,-0.04,0.05,0.09
13.131,-0.15,-0.07,-0.05,0.17
13.141,-0.03,-0.17,-0.07,0.19
13.151,-0.02,-0.16,-0.02,0.16
13.161,0.04,-0.25,-0.14,0.28
13.171,-0.06,-0.11,-0.03,0.13
13.181,-0.08,-0.19,0.12,0.23
13.191,0.07,-0.14,-0.02,0.16
13.201,0.10,-0.16,0.04,0.19
13.211,0.06,0.12,0.06,0.15
13.221,-0.09,-0.03,0.10,0.14
13.231,-0.02,-0.02,0.01,0.03
13.241,0.00,-0.03,0.01,0.03
13.251,0.07,-0.09,0.09,0.15
13.260,-0.08,-0.01,0.03,0.08
13.270,-0.07,-0.14,-0.07,0.17
13.281,0.03,-0.12,-0.12,0.17
13.291,0.11,-0.15,0.01,0.19
13.300,-0.01,0.04,-0.01,0.04
13.310,-0.10,-0.10,-0.02,0.14
13.320,0.01,-0.04,-0.02,0.05
13.330,0.11,-0.04,-0.03,0.12
13.340,0.08,0.02,-0.09,0.12
13.350,-0.11,0.02,-0.10,0.15
13.360,-0.05,-0.04,-0.20,0.21
13.370,0.03,-0.11,-0.16,0.19
13.380,0.08,-0.01,-0.12,0.14
13.390,-0.12,-0.08,-0.10,0.18
13.400,-0.08,-0.14,-0.12,0.20
13.410,0.03,-0.11,0.00,0.11
13.420,0.08,-0.10,-0.22,0.26
13.430,0.01,0.01,-0.04,0.04
13.440,-0.13,0.08,0.02,0.15
13.450,0.01,-0.11,-0.11,0.15
13.460,0.04,-0.11,-0.19,0.22
13.470,0.05,-0.01,-0.19,0.19
13.480,-0.14,0.11,-0.10,0.21
13.490,-0.05,-0.05,-0.12,0.14
13.500,-0.02,-0.09,-0.25,0.27
13.510,0.10,-0.15,-0.23,0.29
13.520,-0.06,-0.03,-0.15,0.16
13.530,-0.08,-0.06,-0.32,0.34
13.540,0.04,-0.10,-0.27,0.30
13.550,0.06,-0.16,-0.22,0.28
13.560,-0.01,0.02,-0.21,0.21
13.570,-0.13,-0.03,-0.28,0.31
13.580,-0.00,0.03,-0.24,0.25
13.590,-0.01,0.01,-0.30,0.30
13.600,0.02,0.02,-0.36,0.36
13.610,-0.13,0.07,-0.19,0.24
13.620,-0.06,-0.02,-0.23,0.24
13.630,0.02,-0.11,-0.38,0.39
13.640,0.07,-0.09,-0.30,0.32
13.650,-0.07,-0.00,-0.20,0.21
13.660,-0.12,-0.12,-0.26,0.31
13.670,0.05,-0.15,-0.19,0.25
13.680,0.09,-0.18,-0.18,0.27
13.690,0.04,-0.09,-0.22,0.24
13.700,-0.11,-0.02,-0.18,0.22
13.710,-0.04,0.03,-0.28,0.28
13.720,0.04,-0.06,-0.35,0.36
13.730,0.04,-0.00,-0.34,0.34
13.740,-0.10,0.11,-0.24,0.28
13.750,-0.09,-0.06,-0.29,0.31
13.760,-0.01,-0.07,-0.34,0.35
13.770,0.06,-0.29,-0.32,0.43
13.780,-0.07,-0.14,-0.25,0.30
13.790,-0.11,-0.21,-0.22,0.32
13.800,0.03,-0.12,-0.29,0.31
13.810,0.09,-0.10,-0.14,0.20
13.820,0.03,0.02,-0.12,0.12
13.830,-0.15,-0.06,-0.20,0.26
13.840,-0.04,-0.05,-0.21,0.22
13.850,-0.01,-0.02,-0.14,0.14
13.860,0.05,-0.02,-0.21,0.21
13.870,-0.13,-0.04,-0.20,0.24
13.880,-0.06,-0.11,-0.22,0.25
13.890,0.03,-0.13,-0.26,0.29
13.899,0.07,-0.12,-0.27,0.31
13.910,-0.06,-0.03,-0.15,0.16
13.919,-0.12,-0.16,-0.15,0.25
13.930,0.01,-0.12,-0.21,0.24
13.939,0.05,-0.10,-0.24,0.27
13.950,0.00,0.00,-0.24,0.24
13.960,-0.16,-0.02,-0.34,0.38
13.969,-0.02,-0.03,-0.32,0.32
13.979,0.05,-0.11,-0.17,0.21
13.990,0.08,-0.01,-0.23,0.24
13.999,-0.13,-0.06,-0.26,0.30
14.009,-0.08,-0.06,-0.16,0.19
14.019,0.03,-0.11,-0.12,0.16
14.029,0.03,-0.20,-0.28,0.35
14.039,-0.08,-0.14,-0.10,0.18
14.049,-0.16,-0.13,-0.20,0.29
14.059,-0.00,-0.12,-0.23,0.26
14.069,0.04,-0.08,-0.20,0.22
14.079,0.03,-0.04,-0.14,0.15
14.089,-0.16,-0.06,-0.37,0.40
14.099,-0.02,-0.01,-0.23,0.23
14.109,-0.01,-0.04,-0.27,0.27
14.119,0.05,-0.09,-0.30,0.32
14.129,-0.14,-0.11,-0.29,0.34
14.139,-0.13,-0.20,-0.33,0.41
14.149,0.02,-0.14,-0.25,0.29
14.159,0.05,-0.23,-0.26,0.35
14.169,-0.07,-0.07,-0.34,0.36
14.179,-0.15,-0.23,-0.26,0.38
14.189,-0.03,-0.10,-0.32,0.34
14.199,0.03,-0.06,-0.24,0.25
14.209,-0.01,-0.08,-0.23,0.25
14.219,-0.10,-0.04,-0.15,0.19
14.229,-0.01,-0.11,-0.16,0.19
14.239,0.06,-0.06,-0.19,0.21
14.249,0.05,-0.09,-0.16,0.19
14.259,-0.10,-0.06,-0.09,0.15
14.269,-0.12,-0.11,-0.08,0.19
14.279,0.01,-0.27,-0.16,0.31
14.289,0.11,-0.17,-0.09,0.22
14.299,-0.03,-0.15,-0.24,0.29
14.309,-0.08,-0.11,-0.15,0.20
14.319,0.00,0.04,-0.18,0.18
14.329,0.11,-0.08,-0.16,0.20
14.339,0.02,-0.01,-0.15,0.15
14.349,-0.10,0.11,-0.07,0.16
14.359,-0.07,-0.14,-0.03,0.16
14.369,0.03,-0.13,-0.11,0.17
14.379,0.09,-0.16,-0.21,0.28
14.389,-0.21,-0.82,-0.19,0.86
14.399,-0.03,0.46,-0.16,0.49
14.409,0.02,-0.10,-0.34,0.35
14.419,0.05,-0.10,-0.33,0.35
14.429,-0.01,-0.06,-0.28,0.29
14.439,-0.09,-0.08,-0.31,0.33
14.449,0.01,-0.13,-0.29,0.32
14.459,0.08,-0.17,-0.23,0.30
14.469,0.06,-0.11,-0.36,0.38
14.479,-0.13,-0.15,-0.28,0.34
14.489,-0.09,-0.08,-0.35,0.37
14.499,-0.01,-0.19,-0.22,0.29
14.509,0.05,-0.03,-0.28,0.29
14.519,-0.12,-0.17,-0.23,0.31
14.529,-0.15,-0.20,-0.25,0.35
14.539,-0.01,-0.26,-0.24,0.36
14.549,0.06,-0.29,-0.25,0.39
14.559,0.00,-0.10,-0.16,0.18
14.569,-0.15,-0.23,-0.24,0.36
14.578,0.03,-0.09,-0.13,0.16
14.589,0.06,-0.11,-0.00,0.13
14.598,0.08,-0.00,-0.09,0.12
14.608,-0.06,-0.13,0.09,0.17
14.619,-0.04,-0.16,0.05,0.17
14.628,-0.03,-0.19,-0.13,0.23
14.639,0.06,-0.26,-0.07,0.28
14.648,-0.06,-0.12,-0.02,0.14
14.659,-0.11,-0.39,-0.13,0.42
14.668,0.05,-0.15,0.03,0.16
14.679,0.10,-0.21,-0.01,0.23
14.688,0.05,0.01,0.02,0.05
14.698,-0.08,-0.10,0.09,0.16
14.708,0.05,-0.12,0.19,0.23
14.718,0.10,-0.04,0.15,0.19
14.728,0.09,-0.18,0.22,0.30
14.738,-0.07,-0.08,0.26,0.28
14.748,-0.09,-0.30,0.06,0.32
14.759,0.04,-0.17,-0.04,0.18
14.768,0.10,-0.18,0.01,0.20
14.778,-0.03,-0.08,-0.08,0.12
14.788,-0.05,-0.26,-0.15,0.30
14.798,0.05,-0.17,0.03,0.18
14.808,0.07,-0.22,-0.22,0.32
14.818,0.03,-0.21,0.00,0.21
14.828,-0.07,-0.15,0.20,0.26
14.838,0.01,-0.24,-0.01,0.24
14.848,0.10,-0.09,0.10,0.17
14.858,0.10,-0.11,0.02,0.15
14.868,-0.07,-0.14,0.04,0.16
14.878,-0.08,-0.28,0.09,0.31
14.888,-0.08,-0.27,-0.20,0.35
14.898,0.03,-0.38,-0.09,0.39
14.908,-0.10,-0.31,-0.04,0.33
14.918,-0.04,-0.21,0.01,0.22
14.928,0.10,-0.17,-0.07,0.21
14.938,0.16,-0.33,0.11,0.39
14.948,0.07,-0.12,-0.07,0.16
14.958,-0.08,-0.37,0.02,0.38
14.968,-0.04,-0.25,-0.04,0.26
14.978,-0.02,-0.28,-0.14,0.31
14.988,0.03,-0.15,-0.15,0.22
14.998,-0.18,-0.49,-0.07,0.53
15.008,-0.11,-0.33,-0.32,0.47
15.018,-0.01,-0.30,-0.28,0.41
15.028,0.06,-0.23,-0.27,0.36
15.038,-0.04,-0.27,-0.16,0.32
15.048,-0.08,-0.45,-0.04,0.46
15.058,0.05,-0.28,-0.13,0.31
15.068,0.12,-0.34,-0.08,0.37
15.078,0.09,-0.05,-0.09,0.14
15.088,-0.13,-0.24,-0.09,0.29
15.098,-0.01,-0.29,0.01,0.29
15.108,0.00,-0.28,0.02,0.28
15.118,0.05,-0.31,0.04,0.32
15.128,-0.17,-0.11,-0.03,0.20
15.138,-0.08,-0.45,0.05,0.46
15.148,0.02,-0.14,-0.19,0.23
15.158,0.10,-0.39,-0.06,0.41
15.168,0.02,-0.03,-0.06,0.07
15.178,-0.11,-0.40,-0.12,0.43
15.188,0.03,-0.22,-0.18,0.28
15.198,0.08,-0.17,-0.10,0.21
15.208,0.06,-0.15,-0.18,0.24
15.218,-0.10,-0.27,-0.04,0.30
15.228,-0.01,-0.23,-0.22,0.32
15.238,-0.01,-0.27,-0.25,0.36
15.248,0.03,-0.12,-0.33,0.35
15.258,-0.17,-0.20,-0.23,0.35
15.267,-0.11,-0.37,-0.30,0.49
15.277,-0.02,-0.32,-0.30,0.44
15.287,0.11,-0.30,-0.12,0.34
15.297,0.01,-0.15,-0.16,0.22
15.308,-0.06,-0.43,-0.00,0.44
15.317,0.00,-0.24,-0.10,0.26
15.328,0.06,-0.32,-0.19,0.37
15.337,0.06,-0.05,-0.10,0.13
15.347,-0.13,-0.12,0.13,0.22
15.357,-0.08,-0.34,-0.20,0.40
15.368,-0.01,-0.28,-0.17,0.33
15.377,0.06,-0.29,-0.24,0.38
15.387,-0.14,-0.05,-0.23,0.28
15.397,-0.09,-0.47,-0.15,0.50
15.407,0.05,-0.13,-0.28,0.31
15.417,0.16,-0.35,-0.19,0.43
15.427,0.09,-0.01,-0.10,0.13
15.437,-0.10,-0.26,-0.05,0.28
15.447,0.03,-0.22,-0.22,0.31
15.457,0.08,-0.23,-0.06,0.25
15.467,0.07,-0.11,-0.11,0.17
15.477,-0.12,-0.12,0.11,0.20
15.487,-0.06,-0.32,-0.28,0.43
15.497,0.03,-0.19,-0.22,0.29
15.507,0.10,-0.17,-0.29,0.35
15.517,-0.07,-0.08,-0.31,0.33
15.527,-0.07,-0.37,-0.13,0.40
15.537,0.07,-0.20,-0.07,0.23
15.547,0.17,-0.26,-0.10,0.33
15.557,0.09,-0.04,0.03,0.11
15.567,-0.09,-0.16,0.08,0.20
15.577,-0.03,-0.13,-0.03,0.13
15.587,0.05,-0.06,-0.08,0.11
15.597,0.10,0.05,0.06,0.13
15.607,-0.07,0.04,0.22,0.23
15.617,-0.08,-0.30,-0.12,0.34
15.627,0.01,-0.05,-0.20,0.20
15.637,0.09,-0.14,-0.14,0.21
15.647,-0.07,0.16,-0.26,0.31
15.657,-0.04,-0.37,0.01,0.38
15.667,0.08,-0.12,-0.04,0.15
15.677,0.13,-0.20,-0.01,0.24
15.687,0.13,0.06,0.04,0.14
15.697,-0.11,-0.12,-0.13,0.20
15.707,0.05,-0.19,-0.25,0.32
15.717,0.06,-0.03,-0.21,0.22
15.727,0.09,-0.07,-0.39,0.41
15.737,-0.09,0.01,-0.17,0.20
15.747,-0.11,-0.29,-0.37,0.48
15.757,-0.05,-0.12,-0.54,0.55
15.767,0.11,-0.24,-0.14,0.30
15.777,-0.03,-0.01,-0.11,0.11
15.787,-0.06,-0.32,-0.10,0.34
15.797,0.07,-0.06,0.05,0.11
15.807,0.10,-0.14,0.14,0.22
15.817,0.06,0.02,0.07,0.10
15.827,-0.10,-0.10,0.25,0.29
15.837,-0.03,-0.09,-0.16,0.18
15.847,0.05,-0.12,-0.10,0.17
15.857,0.05,0.01,-0.25,0.26
15.867,-0.11,-0.01,-0.17,0.21
15.877,-0.12,-0.31,-0.46,0.57
15.887,0.05,-0.10,-0.31,0.33
15.897,0.07,-0.12,-0.26,0.30
15.907,0.00,0.02,-0.21,0.21
15.917,-0.09,-0.28,-0.13,0.33
15.927,0.06,-0.19,-0.33,0.38
15.937,0.15,-0.12,-0.12,0.22
15.947,0.06,0.01,-0.12,0.14
15.957,-0.11,-0.02,-0.41,0.43
15.966,-0.02,-0.15,-0.38,0.41
15.976,0.07,0.00,-0.30,0.31
15.987,0.04,-0.01,-0.49,0.49
15.997,-0.15,-0.03,-0.21,0.26
16.006,-0.12,-0.20,-0.26,0.35
16.016,-0.01,-0.19,-0.34,0.39
16.027,0.10,-0.15,-0.11,0.21
16.037,0.00,0.01,-0.01,0.02
16.047,-0.05,-0.29,-0.05,0.30
16.057,0.09,-0.11,-0.17,0.22
16.066,0.16,-0.07,-0.16,0.23
16.076,0.08,0.12,-0.27,0.31
16.086,-0.13,-0.05,-0.25,0.29
16.096,-0.01,-0.07,-0.39,0.40
16.106,0.02,-0.15,-0.32,0.36
16.116,0.09,-0.05,-0.33,0.34
16.127,-0.15,-0.07,-0.47,0.50
16.136,-0.09,-0.27,-0.55,0.62
16.146,-0.02,-0.10,-0.47,0.48
16.156,0.10,-0.14,-0.32,0.37
16.166,-0.02,0.05,-0.09,0.10
16.176,-0.08,-0.22,-0.06,0.24
16.186,0.00,-0.04,-0.23,0.24
16.196,0.11,-0.09,-0.23,0.27
16.206,0.10,0.17,-0.16,0.26
16.216,-0.16,0.02,-0.17,0.23
16.226,-0.02,-0.11,-0.36,0.38
16.236,0.05,0.03,-0.20,0.21
16.246,0.08,-0.02,-0.45,0.45
16.256,-0.11,0.15,-0.16,0.25
16.266,-0.12,-0.21,-0.43,0.49
16.276,0.01,-0.04,-0.44,0.44
16.286,0.11,-0.08,-0.16,0.21
16.296,0.01,0.20,-0.15,0.24
16.306,-0.11,-0.09,-0.19,0.24
16.316,0.03,-0.02,-0.31,0.31
16.326,0.09,0.08,-0.35,0.37
16.336,0.08,0.10,-0.45,0.47
16.346,-0.10,0.06,-0.27,0.29
16.356,-0.06,-0.09,-0.48,0.49
16.366,0.03,0.03,-0.50,0.50
16.376,0.05,0.06,-0.40,0.41
16.386,-0.13,0.16,-0.32,0.38
16.396,-0.12,-0.12,-0.44,0.48
16.406,0.01,-0.04,-0.38,0.38
16.416,0.11,0.05,-0.30,0.33
16.426,0.05,0.14,-0.18,0.24
16.436,-0.06,-0.07,-0.13,0.16
16.446,0.04,0.00,-0.27,0.27
16.456,0.08,0.13,-0.31,0.34
16.466,0.10,0.22,-0.22,0.32
16.476,-0.14,0.19,-0.24,0.34
16.486,-0.09,-0.07,-0.51,0.52
16.496,0.01,0.04,-0.35,0.36
16.506,0.02,0.09,-0.33,0.34
16.516,-0.10,0.16,-0.19,0.27
16.526,-0.13,-0.12,-0.32,0.37
16.536,0.06,-0.02,-0.21,0.22
16.546,0.11,0.01,-0.19,0.22
16.556,0.05,0.16,-0.16,0.23
16.566,-0.09,0.00,-0.16,0.18
16.576,0.01,-0.01,-0.43,0.43
16.586,0.06,0.12,-0.34,0.37
16.596,0.10,0.17,-0.15,0.25
16.606,-0.16,0.10,-0.28,0.34
16.616,-0.04,-0.13,-0.25,0.29
16.626,-0.04,0.02,-0.46,0.46
16.635,0.07,-0.06,-0.32,0.33
16.646,-0.07,0.23,-0.27,0.36
16.656,-0.13,-0.23,-0.24,0.36
16.665,0.02,0.06,-0.41,0.41
16.675,0.11,-0.07,-0.16,0.21
16.686,0.05,0.23,-0.20,0.31
16.696,-0.08,0.02,-0.09,0.13
16.706,-0.04,0.06,-0.35,0.36
16.715,0.06,0.03,-0.42,0.42
16.725,0.11,0.18,-0.23,0.31
16.735,-0.15,0.15,-0.35,0.41
16.745,-0.08,-0.07,-0.27,0.29
16.755,-0.07,0.04,-0.47,0.48
16.765,0.04,-0.00,-0.41,0.41
16.775,-0.08,0.21,-0.20,0.30
16.785,-0.18,-0.18,-0.18,0.31
16.796,0.02,0.09,-0.35,0.36
16.805,0.15,-0.03,-0.05,0.16
16.815,0.06,0.41,-0.15,0.44
16.825,-0.13,0.00,-0.23,0.27
16.835,0.01,0.17,-0.30,0.35
16.845,0.05,0.18,-0.41,0.45
16.855,0.08,0.16,-0.17,0.25
16.865,-0.15,0.32,-0.20,0.40
16.875,-0.09,-0.16,-0.33,0.38
16.885,0.01,0.19,-0.26,0.32
16.895,0.09,0.04,-0.19,0.21
16.905,-0.03,0.36,-0.02,0.36
16.915,-0.08,-0.11,0.00,0.14
16.925,0.03,0.20,-0.20,0.28
16.935,0.15,0.11,0.03,0.19
16.945,0.10,0.43,-0.05,0.44
16.955,-0.07,0.15,0.02,0.17
16.965,0.03,0.12,-0.18,0.22
16.975,0.07,0.24,-0.25,0.35
16.985,0.11,0.26,-0.02,0.28
16.995,-0.11,0.36,0.01,0.37
17.005,-0.13,-0.10,-0.18,0.25
17.015,-0.00,0.19,-0.18,0.26
17.025,0.12,0.11,0.07,0.18
17.035,0.01,0.35,0.14,0.38
17.045,-0.05,-0.12,0.18,0.22
17.055,0.09,0.16,-0.15,0.23
17.065,0.17,0.08,0.07,0.19
17.075,0.12,0.42,0.02,0.43
17.085,-0.12,0.10,0.01,0.16
17.095,-0.00,0.11,-0.07,0.14
17.105,0.01,0.17,-0.18,0.25
17.115,0.07,0.34,-0.03,0.35
17.125,-0.14,0.30,-0.04,0.33
17.135,-0.10,0.01,-0.30,0.32
17.145,0.03,0.06,-0.19,0.20
17.155,0.11,0.05,-0.01,0.13
17.165,-0.01,0.28,0.02,0.29
17.175,-0.07,-0.10,0.07,0.14
17.185,0.06,0.07,-0.10,0.14
17.195,0.13,0.18,-0.03,0.23
17.205,0.08,0.33,-0.07,0.35
17.215,-0.10,0.11,0.05,0.16
17.225,-0.01,0.01,-0.28,0.28
17.235,0.01,0.12,-0.33,0.35
17.245,0.10,0.24,-0.13,0.29
17.255,-0.12,0.12,-0.02,0.17
17.265,-0.08,-0.14,-0.13,0.21
17.275,-0.00,-0.06,-0.19,0.20
17.284,0.07,0.12,-0.00,0.14
17.294,-0.01,0.31,0.23,0.38
17.304,-0.11,-0.03,0.02,0.12
17.315,0.07,0.05,-0.04,0.10
17.324,0.16,0.20,0.09,0.27
17.335,0.09,0.37,-0.05,0.38
17.344,-0.12,0.05,0.02,0.13
17.354,-0.00,0.01,-0.20,0.20
17.365,0.01,0.07,-0.21,0.22
17.374,0.10,0.19,-0.09,0.23
17.384,-0.11,0.34,-0.11,0.37
17.395,-0.11,-0.23,-0.14,0.29
17.405,0.01,0.12,-0.14,0.18
17.414,0.14,-0.02,-0.11,0.18
17.424,0.07,0.36,0.12,0.38
17.434,-0.10,-0.03,0.07,0.13
17.444,0.03,-0.00,-0.10,0.10
17.454,0.14,0.06,0.15,0.21
17.464,0.10,0.31,-0.09,0.33
17.474,-0.12,0.16,-0.03,0.20
17.484,-0.07,0.10,-0.15,0.20
17.494,0.01,0.05,-0.16,0.17
17.504,0.12,0.11,-0.01,0.16
17.514,-0.04,0.23,0.15,0.27
17.524,-0.12,-0.13,-0.06,0.19
17.534,0.02,-0.00,-0.06,0.06
17.544,0.17,0.10,0.05,0.20
17.554,0.08,0.29,0.12,0.32
17.564,-0.08,0.03,0.06,0.10
17.574,0.06,0.09,-0.05,0.12
17.584,0.12,0.11,-0.11,0.20
17.594,0.12,0.31,0.10,0.35
17.604,-0.15,0.25,-0.15,0.32
17.614,-0.08,-0.04,-0.27,0.28
17.624,-0.00,0.14,-0.13,0.19
17.634,0.11,0.05,-0.11,0.16
17.644,-0.04,0.20,-0.00,0.21
17.654,-0.08,-0.11,0.00,0.13
17.664,0.01,0.04,-0.27,0.27
17.674,0.18,0.05,-0.04,0.19
17.684,0.12,0.37,0.10,0.40
17.694,-0.08,0.07,-0.02,0.11
17.704,0.03,0.03,-0.13,0.14
17.714,0.10,0.18,-0.19,0.28
17.724,0.10,0.16,-0.13,0.23
17.734,-0.13,0.25,-0.25,0.38
17.744,-0.10,-0.03,-0.34,0.35
17.754,-0.00,0.13,-0.30,0.33
17.764,0.13,-0.04,-0.01,0.14
17.774,-0.05,0.21,-0.00,0.21
17.784,-0.11,-0.24,-0.14,0.30
17.794,-0.00,-0.03,-0.16,0.17
17.804,0.13,0.21,-0.05,0.25
17.814,0.12,0.05,0.05,0.14
17.824,-0.11,0.15,-0.09,0.20
17.834,-0.02,-0.05,-0.38,0.39
17.844,0.05,0.05,-0.22,0.23
17.854,0.06,0.15,-0.36,0.40
17.864,-0.31,0.12,-0.18,0.38
17.874,-0.12,-0.14,-0.11,0.21
17.884,0.13,0.11,-0.50,0.53
17.894,0.16,-0.25,-0.09,0.31
17.904,-0.03,0.24,-0.06,0.25
17.914,-0.12,-0.23,-0.28,0.38
17.924,0.01,0.03,-0.33,0.33
17.934,0.13,0.13,-0.20,0.27
17.944,0.12,0.18,-0.09,0.24
17.954,-0.09,0.14,-0.13,0.21
17.964,-0.01,-0.10,-0.44,0.45
17.974,0.05,0.11,-0.28,0.31
17.984,0.09,0.16,-0.15,0.24
17.994,-0.12,0.19,-0.22,0.32
18.003,-0.13,-0.17,-0.41,0.46
18.013,0.01,0.05,-0.22,0.22
18.023,0.10,0.09,-0.26,0.30
18.033,-0.03,0.17,-0.09,0.20
18.043,-0.11,-0.09,-0.26,0.29
18.053,0.02,-0.03,-0.47,0.47
18.063,0.14,0.04,-0.19,0.24
18.073,0.13,0.35,-0.15,0.40
18.083,-0.08,0.04,-0.12,0.15
18.093,0.00,0.10,-0.38,0.39
18.103,0.04,-0.03,-0.30,0.31
18.113,0.08,0.25,-0.36,0.44
18.123,-0.11,0.14,-0.21,0.27
18.133,-0.10,-0.08,-0.48,0.49
18.143,0.03,0.04,-0.32,0.32
18.153,0.12,0.07,-0.25,0.28
18.163,0.01,0.28,-0.17,0.33
18.173,-0.12,-0.08,-0.14,0.20
18.183,-0.00,0.08,-0.30,0.31
18.193,0.14,0.10,-0.16,0.24
18.203,0.11,0.33,-0.25,0.43
18.213,-0.07,0.12,-0.30,0.33
18.223,-0.00,0.02,-0.44,0.44
18.233,0.02,0.20,-0.49,0.53
18.243,0.11,0.15,-0.20,0.27
18.253,-0.11,0.27,-0.17,0.34
18.263,-0.13,-0.16,-0.34,0.40
18.273,0.00,0.02,-0.35,0.35
18.283,0.16,0.02,-0.14,0.21
18.293,0.00,0.34,-0.14,0.37
18.303,-0.06,-0.12,-0.13,0.18
18.313,0.01,0.10,-0.38,0.40
18.323,0.15,0.13,-0.24,0.31
18.333,0.11,0.37,-0.34,0.51
18.343,-0.13,0.17,-0.28,0.35
18.353,-0.06,0.04,-0.58,0.59
18.363,0.02,-0.04,-0.39,0.40
18.373,0.11,0.26,-0.33,0.44
18.383,-0.07,0.16,-0.09,0.19
18.393,-0.11,-0.07,-0.25,0.29
18.403,0.02,0.01,-0.32,0.32
18.413,0.15,0.02,-0.12,0.20
18.423,0.06,0.42,-0.06,0.43
18.433,-0.07,-0.12,-0.13,0.19
18.443,0.02,0.21,-0.54,0.58
18.453,0.13,-0.01,-0.21,0.24
18.463,0.11,0.42,-0.20,0.48
18.473,-0.13,0.14,-0.14,0.24
18.483,-0.05,-0.04,-0.32,0.32
18.493,0.02,0.11,-0.40,0.42
18.503,0.09,0.16,-0.33,0.38
18.513,-0.06,0.33,-0.12,0.35
18.523,-0.12,-0.16,-0.38,0.43
18.533,0.06,-0.04,-0.34,0.35
18.543,0.15,0.09,-0.09,0.20
18.553,0.06,0.30,-0.22,0.38
18.563,-0.07,-0.02,-0.10,0.12
18.573,0.08,0.05,-0.30,0.31
18.583,0.10,0.08,-0.37,0.39
18.593,0.13,0.42,-0.17,0.47
18.603,-0.07,0.14,0.02,0.16
18.613,-0.10,-0.04,-0.30,0.32
18.623,0.01,-0.12,-0.17,0.20
18.633,0.10,0.17,-0.15,0.25
18.643,-0.07,0.23,-0.11,0.27
18.653,-0.12,-0.11,-0.16,0.22
18.663,0.01,0.04,-0.52,0.52
18.673,0.13,-0.09,-0.30,0.34
18.682,0.12,0.49,-0.10,0.51
18.693,-0.12,-0.08,-0.36,0.39
18.702,0.00,0.04,-0.60,0.60
18.713,0.11,0.06,-0.49,0.51
18.722,0.16,0.21,-0.44,0.51
18.733,-0.09,0.32,-0.50,0.60
18.743,-0.06,-0.16,-0.40,0.43
18.752,0.02,0.18,-0.45,0.49
18.762,0.12,0.05,-0.33,0.35
18.773,-0.03,0.37,-0.01,0.37
18.782,-0.16,-0.05,-0.19,0.26
18.792,0.03,-0.00,-0.31,0.31
18.802,0.19,0.16,-0.18,0.30
18.812,0.15,0.32,0.04,0.35
18.822,-0.06,0.25,-0.18,0.31
18.832,0.04,0.00,-0.42,0.42
18.842,0.15,0.24,-0.25,0.37
18.852,0.11,0.36,-0.34,0.51
18.862,-0.08,0.36,-0.24,0.44
18.872,-0.08,-0.03,-0.25,0.26
18.882,0.01,0.07,-0.53,0.53
18.892,0.13,0.09,-0.20,0.25
18.902,0.02,0.42,0.02,0.43
18.912,-0.11,-0.04,-0.26,0.29
18.922,0.01,0.07,-0.40,0.40
18.932,0.18,0.14,-0.11,0.26
18.942,0.16,0.38,-0.27,0.49
18.952,-0.04,0.20,-0.23,0.31
18.962,0.05,0.07,-0.51,0.52
18.972,0.08,0.18,-0.69,0.72
18.982,0.11,0.36,-0.47,0.60
18.992,-0.10,0.36,0.00,0.37
19.002,-0.13,-0.05,-0.32,0.35
19.012,0.02,0.13,-0.31,0.33
19.022,0.14,0.16,-0.17,0.28
19.032,0.03,0.36,-0.20,0.41
19.042,-0.05,0.04,-0.30,0.30
19.052,0.04,0.04,-0.42,0.42
19.062,0.16,0.15,-0.21,0.30
19.072,0.10,0.29,-0.26,0.40
19.082,-0.05,0.10,-0.11,0.16
19.092,0.00,0.14,-0.48,0.50
19.102,0.09,0.19,-0.30,0.36
19.112,0.10,0.31,-0.35,0.48
19.122,-0.05,0.16,-0.08,0.18
19.132,-0.09,0.06,-0.25,0.27
19.142,0.02,0.03,-0.26,0.27
19.152,0.14,0.27,0.08,0.32
19.162,-0.01,0.30,-0.04,0.30
19.172,-0.05,0.03,-0.12,0.13
19.182,0.10,0.12,-0.29,0.33
19.192,0.19,0.13,-0.26,0.34
19.202,0.09,0.41,-0.30,0.52
19.212,0.06,0.21,0.02,0.22
19.222,0.00,0.07,-0.43,0.44
19.232,0.01,0.14,-0.60,0.62
19.242,0.11,0.36,-0.26,0.46
19.252,-0.12,0.34,-0.42,0.55
19.262,-0.10,-0.29,-0.57,0.65
19.272,0.03,0.10,-0.43,0.45
19.282,0.19,0.20,-0.25,0.37
19.292,0.05,0.25,0.00,0.25
19.301,-0.05,-0.03,-0.26,0.27
19.312,0.08,0.05,-0.37,0.38
19.322,0.18,0.18,-0.01,0.25
19.332,0.10,0.39,-0.23,0.46
19.342,-0.18,0.25,-0.14,0.34
19.351,0.01,0.10,-0.19,0.22
19.362,0.05,0.17,-0.09,0.20
19.371,0.17,0.25,0.06,0.31
19.381,-0.06,0.30,0.01,0.30
19.392,-0.05,-0.06,-0.34,0.35
19.401,0.01,0.18,-0.50,0.53
19.411,0.15,0.26,-0.10,0.32
19.421,0.08,0.39,-0.28,0.49
19.432,0.01,0.12,-0.16,0.20
19.441,0.03,0.04,-0.46,0.46
19.451,0.18,0.26,-0.27,0.42
19.461,0.08,0.48,-0.29,0.56
19.471,-0.02,0.18,0.02,0.19
19.481,-0.03,0.09,-0.48,0.49
19.491,0.04,0.07,-0.48,0.48
19.501,0.18,0.39,-0.08,0.44
19.511,-0.04,0.38,-0.02,0.38
19.521,-0.02,0.02,-0.26,0.26
19.531,0.03,0.06,-0.41,0.41
19.541,0.16,0.19,-0.23,0.34
19.551,0.20,0.50,0.09,0.54
19.561,0.02,0.26,0.10,0.28
19.571,0.10,0.09,-0.13,0.19
19.581,0.13,0.31,-0.03,0.34
19.591,0.09,0.37,-0.09,0.39
19.601,0.05,0.42,-0.10,0.44
19.611,-0.02,0.12,-0.37,0.39
19.621,-0.01,0.29,-0.42,0.51
19.631,0.08,0.38,-0.29,0.48
19.641,0.06,0.38,-0.03,0.39
19.651,-0.10,0.29,-0.20,0.36
19.661,0.04,0.17,-0.48,0.51
19.671,0.17,0.25,-0.20,0.36
19.681,0.21,0.47,-0.03,0.51
19.691,0.03,0.22,0.07,0.23
19.701,0.02,0.25,-0.28,0.37
19.711,0.08,0.26,-0.36,0.45
19.721,0.10,0.47,-0.31,0.57
19.731,0.03,0.47,0.02,0.47
19.741,-0.06,0.18,-0.49,0.53
19.751,-0.02,0.29,-0.35,0.46
19.761,0.20,0.44,0.11,0.50
19.771,0.13,0.32,0.10,0.36
19.781,-0.00,0.22,-0.10,0.24
19.791,0.08,0.34,-0.34,0.49
19.801,0.19,0.39,-0.28,0.52
19.811,0.16,0.52,-0.05,0.55
19.821,0.01,0.45,-0.30,0.54
19.831,0.01,0.31,-0.60,0.68
19.841,0.05,0.52,-0.50,0.72
19.851,0.05,0.46,-0.32,0.57
19.861,0.01,0.59,-0.09,0.60
19.871,-0.11,0.01,-0.51,0.52
19.881,-0.11,0.31,-0.81,0.87
19.891,0.19,0.44,-0.17,0.51
19.901,0.16,0.33,-0.03,0.37
19.911,-0.06,0.11,-0.23,0.26
19.921,0.07,0.26,-0.47,0.54
19.931,0.35,0.34,-0.01,0.49
19.941,0.23,0.52,0.17,0.60
19.951,0.02,0.42,-0.18,0.46
19.961,0.04,0.20,-0.42,0.47
19.971,0.01,0.40,-0.24,0.47
19.981,0.09,0.49,-0.16,0.52
19.991,-0.11,0.62,-0.02,0.63
20.001,-0.02,0.09,-0.27,0.29
20.011,0.12,0.48,-0.46,0.67
20.021,0.21,0.37,-0.12,0.44
20.031,0.10,0.72,-0.07,0.73
20.041,-0.03,0.13,-0.25,0.28
20.051,0.13,0.34,-0.25,0.44
20.061,0.17,0.41,0.04,0.44
20.070,0.24,0.46,0.04,0.52
20.081,-0.02,0.48,-0.13,0.50
20.090,0.11,0.22,-0.35,0.43
20.100,0.11,0.46,-0.62,0.78
20.110,0.10,0.50,-0.20,0.55
20.120,-0.02,0.45,-0.20,0.50
20.130,-0.10,0.05,-0.12,0.16
20.140,0.11,0.45,-0.28,0.54
20.150,0.23,0.28,-0.01,0.37
20.161,0.08,0.50,0.05,0.51
20.170,-0.05,0.03,-0.10,0.11
20.180,0.12,0.26,-0.35,0.45
20.190,0.19,0.51,-0.30,0.62
20.200,0.12,0.51,-0.05,0.53
20.210,-0.01,0.40,0.14,0.42
20.220,0.10,0.08,-0.14,0.19
20.230,-0.06,0.37,-0.42,0.56
20.240,0.04,0.53,-0.15,0.55
20.250,0.09,0.57,0.09,0.58
20.260,0.00,-0.00,0.07,0.07
20.270,0.08,0.26,-0.17,0.32
20.280,0.20,0.36,-0.14,0.44
20.290,0.14,0.58,-0.03,0.60
20.300,-0.01,0.07,-0.08,0.11
20.310,0.08,0.24,-0.54,0.60
20.320,0.12,0.46,-0.61,0.77
20.330,0.16,0.65,-0.30,0.73
20.340,-0.02,0.27,-0.04,0.27
20.350,-0.06,0.05,-0.23,0.25
20.360,0.05,0.63,-0.33,0.72
20.370,0.27,0.31,-0.28,0.50
20.380,0.04,0.63,0.02,0.63
20.390,-0.08,0.02,-0.25,0.27
20.400,0.01,0.25,-0.38,0.46
20.410,0.15,0.38,-0.16,0.44
20.420,0.09,0.38,0.18,0.43
20.430,-0.06,0.19,0.07,0.21
20.440,0.08,0.05,-0.18,0.21
20.450,0.11,0.47,-0.19,0.52
20.460,0.18,0.41,0.02,0.45
20.470,-0.02,0.62,0.26,0.67
20.480,0.02,0.18,-0.18,0.25
20.490,-0.01,0.36,-0.82,0.90
20.500,0.08,0.46,0.14,0.49
20.510,0.04,0.61,-0.22,0.65
20.520,-0.12,-0.20,-0.23,0.33
20.530,0.12,0.48,-0.31,0.59
20.540,0.20,0.40,-0.23,0.50
20.550,0.14,0.58,-0.08,0.60
20.560,0.01,0.22,0.12,0.26
20.570,0.06,0.19,-0.58,0.61
20.580,0.05,0.55,-0.50,0.75
20.590,0.11,0.55,-0.13,0.58
20.600,-0.04,0.60,-0.44,0.74
20.610,-0.01,-0.07,0.05,0.09
20.620,0.09,0.43,-0.33,0.55
20.630,0.20,0.28,0.01,0.34
20.640,0.01,0.86,0.18,0.88
20.650,0.06,0.23,-0.05,0.25
20.660,-0.01,0.13,-0.31,0.33
20.670,0.02,0.29,0.12,0.31
20.680,-0.02,0.66,0.03,0.66
20.690,0.04,0.41,-0.23,0.47
20.700,0.14,0.09,-0.08,0.18
20.710,0.13,0.36,-0.55,0.67
20.719,0.20,0.55,-0.23,0.62
20.730,0.00,0.54,-0.28,0.61
20.740,-0.15,0.11,-0.51,0.55
20.750,-0.05,0.46,-0.65,0.80
20.760,0.22,0.48,-0.09,0.54
20.769,0.06,0.29,0.02,0.29
20.780,-0.04,-0.12,-0.14,0.19
20.790,0.13,0.14,-0.43,0.47
20.799,0.22,0.40,-0.40,0.61
20.809,0.16,0.27,-0.06,0.33
20.819,0.05,0.26,0.10,0.28
20.829,0.03,0.05,-0.40,0.41
20.839,-0.05,0.32,-0.39,0.51
20.849,0.08,0.50,-0.03,0.50
20.859,0.14,0.62,0.03,0.64
20.869,0.04,0.09,0.08,0.13
20.879,0.03,0.16,-0.48,0.51
20.889,0.15,0.35,-0.36,0.52
20.899,-0.00,0.28,-0.04,0.28
20.909,-0.07,-0.05,-0.19,0.21
20.922,0.05,0.27,-0.61,0.67
20.929,0.17,0.35,-0.33,0.51
20.939,0.15,0.37,-0.01,0.40
20.949,0.02,0.30,0.05,0.30
20.959,0.04,0.17,-0.44,0.47
20.969,0.06,0.38,-0.58,0.70
20.979,0.13,0.45,-0.21,0.51
20.989,0.06,0.45,0.04,0.46
20.999,-0.07,-0.03,-0.14,0.16
21.009,-0.01,0.32,-0.24,0.40
21.019,0.26,0.16,-0.06,0.31
21.029,0.14,0.36,0.25,0.46
21.039,0.01,0.04,0.03,0.05
21.049,0.03,0.06,-0.60,0.61
21.059,0.13,0.40,-0.25,0.49
21.069,0.17,0.39,0.25,0.49
21.079,0.07,0.27,0.28,0.40
21.089,-0.02,0.04,-0.46,0.46
21.099,-0.00,0.37,-0.40,0.54
21.109,0.24,0.60,0.00,0.65
21.119,0.02,0.28,-0.06,0.28
21.129,-0.19,0.03,-0.20,0.28
21.139,0.15,0.46,-0.21,0.53
21.149,0.30,0.44,0.13,0.54
21.159,0.04,0.17,0.25,0.30
21.169,0.01,0.09,0.19,0.21
21.179,0.10,0.05,-0.28,0.31
21.189,0.08,0.33,-0.28,0.44
21.199,0.21,0.33,-0.00,0.39
21.209,0.06,0.23,0.26,0.35
21.219,0.06,0.07,-0.12,0.15
21.229,0.06,0.38,-0.34,0.51
21.240,0.21,0.38,-0.13,0.45
21.249,0.10,0.43,0.18,0.48
21.259,-0.14,-0.09,-0.31,0.35
21.269,-0.04,0.27,-0.73,0.78
21.279,0.17,0.24,-0.16,0.33
21.289,-0.01,0.19,0.15,0.24
21.299,-0.02,0.02,-0.03,0.04
21.309,0.08,0.07,-0.34,0.36
21.319,0.23,0.34,-0.29,0.50
21.329,0.13,0.29,-0.11,0.33
21.339,0.04,0.18,-0.01,0.18
21.349,-0.01,0.02,-0.42,0.43
21.359,0.02,0.44,-0.42,0.61
21.369,0.13,0.33,-0.19,0.40
21.379,-0.04,0.25,0.13,0.29
21.388,-0.08,-0.06,-0.22,0.24
21.399,0.02,0.17,-0.48,0.51
21.408,0.13,0.25,-0.20,0.34
21.418,0.01,0.13,-0.00,0.13
21.428,-0.12,-0.14,-0.23,0.29
21.438,0.11,0.09,-0.57,0.59
21.448,0.15,0.22,-0.56,0.62
21.459,0.13,0.28,-0.08,0.32
21.468,0.01,0.17,0.07,0.18
21.479,0.03,0.05,-0.40,0.40
21.488,0.14,0.38,-0.48,0.62
21.498,0.15,0.29,-0.16,0.36
21.509,-0.05,0.24,-0.09,0.26
21.519,-0.11,-0.03,-0.19,0.22
21.529,-0.02,0.09,-0.61,0.62
21.538,0.16,0.36,-0.26,0.47
21.548,0.06,0.11,0.20,0.23
21.558,-0.01,-0.16,0.12,0.20
21.568,0.09,0.09,-0.31,0.33
21.578,0.20,0.33,-0.17,0.42
21.588,0.15,0.16,0.18,0.29
21.598,-0.00,0.18,0.31,0.36
21.608,0.03,0.07,-0.28,0.29
21.618,0.07,0.28,-0.31,0.43
21.628,0.18,0.43,-0.17,0.50
21.638,-0.04,0.04,-0.09,0.11
21.648,-0.07,-0.05,-0.25,0.27
21.658,0.00,0.15,-0.61,0.63
21.668,0.11,0.16,-0.28,0.34
21.678,0.02,0.15,0.23,0.27
21.688,-0.08,-0.12,0.07,0.16
21.698,0.02,0.05,-0.44,0.45
21.708,0.21,0.35,-0.27,0.49
21.718,0.18,0.21,-0.11,0.30
21.728,0.01,0.10,0.07,0.12
21.738,0.06,0.14,-0.28,0.31
21.748,0.11,0.18,-0.35,0.41
21.758,0.17,0.36,-0.20,0.45
21.768,-0.08,0.14,0.13,0.21
21.778,-0.10,-0.08,-0.06,0.14
21.788,-0.01,-0.03,-0.36,0.36
21.798,0.23,0.21,0.02,0.32
21.808,0.07,0.02,0.31,0.31
21.818,-0.00,-0.05,0.27,0.27
21.828,0.06,-0.03,-0.40,0.40
21.838,0.06,0.37,-0.33,0.50
21.848,0.15,0.34,0.14,0.39
21.858,-0.01,0.09,0.19,0.21
21.868,0.02,0.09,-0.32,0.33
21.878,0.08,0.19,-0.47,0.51
21.888,0.19,0.22,-0.15,0.33
21.898,-0.04,0.17,0.11,0.21
21.908,-0.07,-0.19,-0.11,0.23
21.918,0.05,0.02,-0.37,0.37
21.928,0.19,0.10,0.04,0.22
21.938,0.09,0.22,0.20,0.31
21.948,-0.03,-0.11,0.16,0.19
21.958,0.06,-0.00,-0.30,0.30
21.968,0.02,0.27,-0.16,0.31
21.978,0.14,0.32,0.09,0.36
21.988,0.09,0.25,0.26,0.37
21.998,0.02,-0.04,-0.01,0.04
22.008,0.03,0.10,-0.35,0.37
22.018,0.05,0.24,-0.00,0.25
22.028,0.08,0.25,-0.05,0.27
22.038,-0.05,-0.08,0.33,0.34
22.048,0.13,0.03,-0.32,0.35
22.058,0.14,0.03,0.25,0.29
22.068,0.09,0.36,-0.13,0.39
22.078,0.03,0.04,0.36,0.36
22.087,0.07,-0.01,-0.36,0.37
22.098,0.10,0.17,-0.29,0.35
22.108,0.21,0.32,0.07,0.39
22.117,0.05,0.30,0.26,0.40
22.128,0.01,-0.18,-0.34,0.39
22.137,0.07,0.27,-0.37,0.46
22.147,0.21,0.16,0.03,0.27
22.157,-0.01,0.23,0.19,0.29
22.167,-0.05,-0.26,0.03,0.27
22.178,0.05,0.07,-0.33,0.34
22.187,0.08,0.18,0.04,0.20
22.198,0.13,0.24,-0.09,0.29
22.207,0.08,-0.01,0.41,0.42
22.217,0.11,0.03,0.08,0.14
22.227,0.17,0.19,-0.11,0.28
22.237,0.16,0.36,0.04,0.40
22.247,0.06,0.36,0.23,0.43
22.257,0.02,-0.16,-0.12,0.20
22.267,0.01,0.13,-0.42,0.44
22.277,0.13,0.15,-0.16,0.25
22.287,-0.02,0.30,0.29,0.42
22.298,-0.10,-0.21,0.19,0.31
22.307,0.07,-0.07,-0.23,0.25
22.317,0.23,0.21,0.21,0.37
22.327,0.07,0.34,0.10,0.36
22.337,0.05,0.02,0.20,0.21
22.347,0.07,0.09,-0.14,0.18
22.357,0.07,0.17,-0.26,0.32
22.367,0.12,0.34,0.04,0.36
22.377,-0.00,0.34,0.12,0.36
22.387,-0.05,-0.16,-0.06,0.18
22.397,0.08,0.16,-0.21,0.27
22.407,0.21,0.09,0.03,0.23
22.417,-0.07,0.18,0.07,0.21
22.427,-0.04,-0.21,0.28,0.36
22.437,0.03,0.05,-0.37,0.38
22.447,0.15,0.24,-0.31,0.42
22.457,0.07,0.27,0.13,0.31
22.467,0.01,0.12,0.15,0.19
22.477,0.08,-0.05,-0.29,0.30
22.487,0.09,0.47,-0.41,0.63
22.497,0.18,0.35,-0.09,0.40
22.507,-0.04,0.05,0.15,0.16
22.517,-0.01,-0.09,0.01,0.10
22.527,-0.03,-0.03,-0.48,0.48
22.537,0.19,0.24,0.16,0.35
22.547,0.01,0.20,0.04,0.20
22.557,-0.07,-0.18,0.19,0.27
22.567,0.10,0.09,-0.09,0.16
22.577,0.19,0.21,0.00,0.29
22.587,0.14,0.25,0.01,0.29
22.597,-0.04,0.19,0.23,0.30
22.607,0.09,-0.00,-0.16,0.18
22.617,0.09,0.16,-0.39,0.43
22.627,0.20,0.32,-0.10,0.39
22.637,-0.07,0.38,0.28,0.47
22.647,-0.06,-0.18,-0.02,0.19
22.657,0.07,0.15,-0.17,0.24
22.667,0.16,0.14,0.06,0.23
22.677,0.07,0.22,0.15,0.28
22.687,0.00,-0.13,0.13,0.19
22.697,0.03,0.04,-0.37,0.37
22.707,0.12,0.25,-0.16,0.32
22.717,0.17,0.31,0.06,0.36
22.727,0.03,0.18,0.36,0.40
22.737,0.05,0.12,-0.04,0.14
22.747,0.05,0.20,-0.24,0.32
22.757,0.20,0.30,0.31,0.48
22.766,-0.08,0.40,-0.07,0.41
22.776,-0.04,-0.29,0.28,0.41
22.786,0.02,0.24,-0.64,0.68
22.797,0.08,-0.01,-0.12,0.14
22.806,0.14,0.47,-0.05,0.49
22.816,0.04,-0.07,0.38,0.39
22.826,0.07,-0.03,-0.18,0.19
22.836,0.22,0.20,-0.03,0.30
22.847,0.21,0.43,0.25,0.54
22.856,0.03,0.33,0.30,0.44
22.866,0.08,-0.05,-0.12,0.15
22.876,0.13,0.25,-0.35,0.45
22.886,0.14,0.23,-0.29,0.40
22.896,-0.04,0.47,0.28,0.55
22.906,-0.05,-0.15,-0.17,0.23
22.917,0.01,-0.01,-0.40,0.40
22.926,0.16,0.20,0.04,0.26
22.936,0.02,0.32,0.22,0.39
22.946,-0.01,0.04,0.06,0.07
22.956,0.11,0.01,-0.04,0.12
22.966,0.20,0.12,-0.13,0.27
22.976,0.23,0.40,-0.04,0.46
22.986,-0.00,0.37,0.38,0.53
22.996,0.06,-0.09,-0.34,0.36
23.006,0.08,0.16,-0.45,0.49
23.016,0.19,0.23,0.13,0.32
23.026,-0.04,0.43,-0.03,0.44
23.036,-0.07,-0.17,-0.02,0.18
23.046,0.03,0.14,-0.31,0.34
23.056,0.10,-0.09,-0.07,0.15
23.066,0.09,0.42,0.27,0.51
23.076,-0.02,-0.07,0.37,0.37
23.086,0.09,-0.02,-0.07,0.12
23.096,0.16,0.20,-0.07,0.26
23.106,0.18,0.35,0.07,0.40
23.116,-0.01,0.47,0.28,0.54
23.126,0.02,-0.05,-0.28,0.28
23.136,0.10,0.22,-0.35,0.42
23.146,0.12,0.13,0.03,0.18
23.156,0.01,0.45,0.13,0.46
23.166,-0.01,-0.23,0.15,0.28
23.176,0.04,0.05,-0.25,0.26
23.186,0.12,0.07,0.03,0.15
23.196,0.12,0.42,0.26,0.51
23.206,-0.00,0.04,0.35,0.35
23.216,0.08,-0.06,-0.06,0.11
23.226,0.15,0.20,-0.22,0.34
23.236,0.07,0.31,-0.10,0.34
23.246,-0.08,0.55,0.13,0.57
23.256,0.10,-0.02,0.04,0.11
23.266,-0.00,0.02,-0.40,0.40
23.276,0.11,0.23,0.27,0.37
23.286,0.04,0.38,0.28,0.48
23.296,0.03,-0.01,0.10,0.10
23.306,0.09,-0.06,0.07,0.13
23.316,0.08,0.28,0.16,0.33
23.326,0.05,0.36,0.06,0.37
23.336,0.06,0.14,0.25,0.29
23.346,0.09,0.06,0.03,0.11
23.356,0.11,0.07,-0.19,0.23
23.366,0.13,0.46,0.20,0.52
23.376,-0.04,0.40,-0.04,0.41
23.386,0.07,-0.00,-0.07,0.10
23.396,0.06,0.20,-0.21,0.30
23.406,0.09,0.06,-0.07,0.12
23.416,-0.05,0.49,0.25,0.55
23.426,-0.05,-0.24,0.10,0.27
23.436,0.10,0.08,-0.21,0.25
23.446,0.08,0.04,-0.11,0.14
23.455,0.14,0.51,0.07,0.54
23.465,-0.03,0.10,0.23,0.25
23.476,0.11,-0.03,-0.31,0.33
23.485,0.05,0.30,-0.47,0.56
23.495,0.09,0.37,-0.03,0.38
23.505,-0.01,0.62,0.03,0.62
23.515,0.03,-0.27,-0.11,0.29
23.525,0.04,0.17,-0.22,0.28
23.535,0.12,0.06,0.18,0.23
23.546,-0.03,0.53,0.05,0.53
23.555,-0.01,-0.27,0.16,0.31
23.565,0.06,0.13,-0.06,0.16
23.575,0.11,0.04,-0.24,0.26
23.585,0.07,0.49,-0.02,0.50
23.595,-0.00,0.44,0.02,0.44
23.605,0.17,-0.10,-0.05,0.20
23.615,0.11,0.25,-0.28,0.39
23.625,0.07,0.20,0.05,0.22
23.635,-0.02,0.57,-0.05,0.57
23.645,-0.06,-0.22,-0.11,0.25
23.655,0.06,0.13,-0.28,0.32
23.665,0.08,-0.02,-0.09,0.12
23.675,-0.02,0.52,0.12,0.53
23.685,-0.16,-0.22,0.15,0.31
23.695,0.09,0.08,-0.17,0.21
23.705,0.14,0.01,-0.18,0.23
23.715,0.14,0.44,0.02,0.46
23.725,-0.03,0.19,0.24,0.31
23.735,0.09,-0.05,-0.20,0.23
23.745,-0.00,0.13,-0.48,0.49
23.755,0.09,0.21,-0.09,0.25
23.765,-0.15,0.46,0.15,0.50
23.775,0.03,-0.22,-0.10,0.25
23.785,-0.07,0.03,-0.39,0.39
23.795,0.03,-0.05,-0.20,0.21
23.805,0.04,0.54,0.13,0.56
23.815,-0.07,-0.12,-0.07,0.15
23.825,0.04,-0.09,-0.13,0.17
23.835,0.11,-0.06,-0.12,0.17
23.845,0.16,0.42,-0.16,0.48
23.855,-0.06,0.25,0.15,0.30
23.865,0.02,-0.07,-0.43,0.44
23.875,0.03,-0.00,-0.41,0.41
23.885,0.05,0.20,-0.44,0.48
23.895,-0.14,0.49,0.04,0.51
23.905,-0.03,-0.26,-0.12,0.28
23.915,-0.03,-0.01,-0.30,0.30
23.925,0.05,-0.15,-0.20,0.26
23.935,-0.02,0.42,0.12,0.44
23.945,-0.05,-0.07,0.08,0.12
23.955,0.05,-0.08,-0.11,0.14
23.965,0.13,-0.10,-0.13,0.21
23.975,0.17,0.32,0.09,0.37
23.985,-0.05,0.20,0.05,0.22
23.995,-0.09,-0.01,-0.52,0.53
24.005,0.01,0.01,-0.42,0.42
24.015,0.11,0.12,-0.19,0.25
24.025,-0.02,0.31,0.26,0.40
24.035,-0.11,-0.32,-0.03,0.34
24.045,-0.04,-0.08,-0.24,0.26
24.055,0.09,-0.09,0.18,0.22
24.065,0.08,0.47,0.09,0.49
24.075,-0.07,-0.15,0.32,0.36
24.085,0.05,0.01,-0.04,0.06
24.095,0.07,-0.09,-0.20,0.23
24.105,0.14,0.33,0.14,0.38
24.115,-0.05,0.42,0.19,0.46
24.124,-0.02,-0.26,-0.32,0.41
24.134,0.05,0.04,-0.12,0.13
24.145,0.10,0.08,0.08,0.15
24.155,-0.04,0.38,-0.04,0.38
24.164,-0.09,-0.15,0.16,0.24
24.174,-0.04,-0.06,-0.15,0.17
24.184,0.09,-0.13,-0.08,0.18
24.195,0.09,0.33,0.44,0.56
24.205,-0.07,-0.08,0.23,0.25
24.214,-0.03,-0.08,-0.14,0.16
24.224,0.14,-0.12,-0.08,0.21
24.234,0.15,0.33,0.03,0.36
24.244,-0.08,0.10,0.11,0.17
24.254,-0.06,-0.04,-0.34,0.34
24.264,-0.02,-0.08,-0.17,0.19
24.274,0.15,0.12,0.16,0.25
24.284,-0.09,0.23,0.26,0.36
24.294,-0.07,-0.22,0.17,0.29
24.304,-0.09,-0.10,-0.21,0.25
24.314,0.08,-0.12,0.16,0.22
24.324,0.09,0.36,0.10,0.39
24.334,-0.01,-0.11,0.40,0.41
24.344,0.03,-0.08,-0.10,0.13
24.354,0.07,-0.12,-0.12,0.19
24.364,0.20,0.41,0.10,0.47
24.374,-0.12,0.21,0.15,0.28
24.384,0.01,-0.21,0.12,0.24
24.394,-0.03,-0.00,-0.21,0.21
24.404,0.04,-0.07,-0.15,0.17
24.414,0.01,0.45,0.38,0.59
24.424,-0.12,-0.27,0.24,0.38
24.434,-0.05,-0.12,-0.15,0.20
24.444,0.12,-0.19,0.37,0.44
24.454,0.11,0.39,0.32,0.52
24.464,-0.01,-0.10,0.64,0.65
24.474,-0.01,-0.03,0.01,0.03
24.484,0.08,-0.18,-0.23,0.30
24.494,0.09,0.33,0.20,0.40
24.504,-0.02,0.25,0.31,0.40
24.514,-0.11,-0.18,-0.28,0.35
24.524,0.02,-0.10,-0.14,0.18
24.534,0.06,0.03,0.01,0.07
24.544,-0.06,0.37,0.30,0.48
24.554,-0.12,-0.18,0.21,0.30
24.564,-0.05,-0.23,-0.15,0.28
24.574,0.11,-0.04,0.01,0.12
24.584,0.11,0.30,0.29,0.43
24.594,-0.01,-0.02,0.36,0.36
24.604,-0.02,-0.26,-0.08,0.28
24.614,0.12,-0.06,-0.27,0.30
24.624,0.15,0.27,0.03,0.31
24.634,-0.06,0.26,0.29,0.40
24.644,-0.09,-0.19,-0.01,0.21
24.654,-0.03,-0.18,-0.03,0.19
24.664,0.09,0.02,0.15,0.17
24.674,-0.09,0.35,0.30,0.47
24.684,-0.09,-0.15,0.44,0.48
24.694,-0.01,-0.17,0.08,0.18
24.704,0.09,-0.19,0.08,0.23
24.714,0.11,0.40,0.39,0.57
24.724,-0.01,0.02,0.43,0.43
24.734,-0.02,-0.08,-0.14,0.17
24.744,0.12,-0.19,0.06,0.23
24.754,0.18,0.31,0.18,0.40
24.764,-0.06,0.18,0.28,0.34
24.774,-0.05,-0.12,0.22,0.25
24.784,-0.08,-0.14,-0.18,0.24
24.794,0.08,-0.07,0.05,0.11
24.804,-0.05,0.37,0.38,0.53
24.814,-0.06,-0.27,0.46,0.54
24.823,0.00,-0.11,0.07,0.13
24.834,0.09,-0.18,0.09,0.22
24.844,0.16,0.34,0.41,0.55
24.854,-0.05,0.03,0.41,0.41
24.864,-0.05,-0.09,-0.14,0.17
24.873,0.05,0.02,-0.03,0.06
24.884,0.18,0.21,0.33,0.43
24.893,-0.07,0.22,0.32,0.39
24.903,-0.05,-0.21,0.14,0.26
24.913,-0.00,-0.11,0.26,0.29
24.923,0.05,0.03,0.12,0.13
24.933,0.02,0.23,0.59,0.64
24.943,-0.08,-0.08,0.63,0.64
24.953,-0.05,-0.11,-0.08,0.15
24.964,0.10,-0.01,0.18,0.20
24.973,0.13,0.42,0.37,0.58
24.983,-0.07,0.03,0.28,0.29
24.993,-0.06,-0.06,-0.28,0.29
25.003,0.06,-0.09,-0.23,0.25
25.013,0.16,0.35,0.14,0.40
25.023,-0.07,0.25,0.28,0.38
25.033,-0.08,-0.29,0.07,0.31
25.043,0.03,-0.03,-0.03,0.05
25.053,0.05,-0.10,0.06,0.13
25.063,-0.09,0.40,0.31,0.51
25.073,-0.12,-0.26,0.27,0.39
25.083,-0.00,-0.10,-0.23,0.25
25.093,0.06,-0.06,-0.16,0.18
25.103,0.09,0.38,-0.19,0.44
25.113,-0.08,0.23,0.05,0.25
25.123,0.04,-0.20,-0.04,0.21
25.133,0.08,-0.01,-0.24,0.25
25.143,0.15,0.16,-0.02,0.21
25.153,-0.13,0.38,0.29,0.50
25.163,-0.07,-0.20,0.06,0.22
25.173,-0.13,-0.12,-0.16,0.24
25.183,0.02,-0.05,-0.16,0.17
25.193,-0.05,0.38,0.24,0.45
25.203,-0.03,-0.09,0.33,0.34
25.213,0.08,-0.01,-0.08,0.11
25.223,0.11,-0.12,-0.10,0.19
25.233,0.19,0.53,-0.15,0.59
25.243,-0.12,0.10,0.32,0.35
25.253,0.05,-0.02,0.03,0.06
25.263,-0.05,-0.08,-0.11,0.14
25.273,0.08,0.12,0.13,0.20
25.283,-0.17,0.41,0.17,0.48
25.293,-0.09,-0.37,0.16,0.41
25.303,-0.07,0.06,-0.33,0.34
25.313,0.04,-0.14,-0.07,0.16
25.323,0.03,0.41,0.15,0.44
25.333,-0.07,-0.12,0.28,0.32
25.343,0.01,-0.09,-0.19,0.22
25.353,0.05,-0.06,-0.31,0.32
25.363,0.13,0.34,-0.14,0.39
25.373,-0.01,0.20,0.33,0.38
25.383,-0.05,-0.18,-0.29,0.35
25.393,-0.00,-0.07,-0.33,0.33
25.403,0.01,0.14,-0.03,0.14
25.413,-0.22,0.51,0.04,0.55
25.423,-0.12,-0.16,-0.05,0.21
25.433,-0.04,-0.04,-0.17,0.18
25.443,0.07,-0.06,-0.05,0.10
25.453,0.03,0.42,0.13,0.44
25.463,0.05,-0.02,0.40,0.40
25.473,0.06,-0.18,-0.04,0.19
25.483,0.12,-0.04,-0.22,0.25
25.493,0.10,0.33,0.07,0.35
25.502,-0.15,0.43,0.22,0.50
25.513,0.01,-0.15,0.04,0.15
25.522,-0.04,0.02,-0.02,0.05
25.532,-0.02,-0.02,-0.07,0.07
25.542,-0.15,0.46,0.21,0.52
25.553,-0.11,-0.07,0.01,0.13
25.563,-0.05,-0.05,-0.31,0.32
25.572,0.12,-0.05,0.14,0.19
25.583,0.11,0.44,0.09,0.46
25.592,-0.06,-0.03,0.31,0.31
25.602,0.10,0.05,0.14,0.18
25.613,0.11,-0.06,-0.19,0.22
25.622,0.10,0.18,0.14,0.24
25.633,-0.11,0.41,0.53,0.68
25.642,-0.10,-0.20,-0.23,0.32
25.652,-0.05,-0.02,-0.46,0.47
25.662,0.07,0.05,-0.04,0.09
25.672,-0.08,0.47,0.27,0.54
25.682,-0.09,-0.16,0.18,0.25
25.692,0.03,0.02,0.01,0.03
25.702,0.14,-0.03,0.30,0.34
25.712,0.05,0.33,0.16,0.37
25.722,0.01,0.11,0.54,0.55
25.732,0.04,-0.08,0.12,0.15
25.742,0.02,-0.02,0.04,0.05
25.752,0.06,0.30,0.09,0.31
25.762,-0.05,0.34,0.45,0.56
25.772,0.02,-0.04,0.46,0.46
25.782,-0.05,-0.11,-0.24,0.26
25.792,0.05,0.05,0.07,0.10
25.802,-0.02,0.36,0.40,0.54
25.812,-0.11,-0.24,0.37,0.46
25.822,0.02,-0.04,0.34,0.34
25.832,0.14,-0.09,0.13,0.21
25.842,0.09,0.31,0.28,0.43
25.852,0.04,0.08,0.64,0.64
25.862,-0.04,0.02,-0.18,0.19
25.872,-0.03,-0.07,-0.12,0.15
25.882,0.11,0.28,0.39,0.50
25.892,-0.12,0.34,0.12,0.38
25.902,0.01,-0.10,0.42,0.43
25.912,-0.12,0.07,0.18,0.23
25.922,0.22,-0.03,0.35,0.42
25.932,-0.11,0.34,0.53,0.64
25.942,0.04,-0.26,0.63,0.69
25.952,0.10,-0.09,0.18,0.23
25.962,0.10,-0.15,0.20,0.28
25.972,0.03,0.41,0.09,0.42
25.982,-0.01,0.02,0.40,0.40
25.992,0.02,0.00,0.28,0.28
26.002,0.01,-0.13,-0.13,0.18
26.012,0.10,0.26,0.02,0.28
26.022,-0.07,0.32,0.73,0.80
26.032,-0.09,-0.29,0.48,0.57
26.042,-0.08,-0.09,0.08,0.15
26.052,0.02,0.01,0.39,0.39
26.062,0.03,0.46,0.46,0.65
26.072,-0.07,-0.23,0.52,0.57
26.082,0.09,-0.07,0.40,0.41
26.092,0.07,-0.06,0.04,0.10
26.102,0.13,0.25,0.28,0.40
26.112,-0.06,0.22,0.78,0.81
26.122,0.04,-0.19,0.30,0.36
26.132,-0.05,0.03,0.05,0.08
26.142,0.09,0.05,0.56,0.57
26.152,-0.06,0.34,0.60,0.70
26.162,-0.11,-0.29,0.34,0.46
26.172,0.01,0.03,0.28,0.28
26.181,0.06,-0.05,0.22,0.24
26.192,0.02,0.21,0.63,0.66
26.201,-0.03,0.01,0.54,0.55
26.212,0.00,-0.21,0.20,0.29
26.221,0.16,0.06,0.37,0.41
26.232,0.07,0.34,0.42,0.54
26.241,-0.01,-0.12,0.54,0.55
26.251,0.00,-0.07,0.36,0.37
26.261,-0.01,-0.08,0.01,0.08
26.272,0.04,0.20,0.22,0.30
26.281,0.03,0.18,0.72,0.75
26.291,-0.15,-0.27,0.36,0.47
26.301,-0.07,-0.14,0.08,0.17
26.311,0.15,-0.02,0.35,0.38
26.321,-0.01,0.53,0.38,0.65
26.331,-0.13,-0.31,0.69,0.77
26.341,0.04,-0.15,0.26,0.31
26.351,0.08,-0.06,-0.02,0.10
26.361,0.14,0.22,0.24,0.36
26.371,0.00,0.10,0.45,0.46
26.381,-0.07,-0.28,0.05,0.29
26.391,0.01,-0.14,0.10,0.17
26.401,0.03,-0.00,0.07,0.08
26.411,-0.05,0.15,0.45,0.48
26.421,-0.16,-0.24,0.36,0.46
26.431,-0.04,-0.15,0.19,0.25
26.441,0.10,-0.21,0.19,0.30
26.451,0.01,0.11,0.19,0.22
26.461,-0.03,-0.10,0.69,0.70
26.471,-0.08,-0.27,-0.09,0.29
26.481,0.04,-0.07,-0.02,0.08
26.491,0.06,0.04,0.24,0.25
26.501,-0.03,0.02,0.54,0.54
26.511,-0.09,-0.17,-0.04,0.20
26.521,-0.00,-0.09,-0.00,0.09
26.531,0.06,-0.14,0.28,0.32
26.541,-0.06,0.07,0.42,0.43
26.551,-0.18,-0.41,0.21,0.49
26.561,-0.12,-0.16,-0.25,0.32
26.571,0.07,-0.15,0.15,0.22
26.581,0.03,0.12,0.33,0.35
26.591,-0.10,-0.19,0.36,0.42
26.601,0.05,-0.25,0.25,0.36
26.611,0.06,-0.14,0.02,0.15
26.621,0.17,0.04,0.31,0.36
26.631,-0.08,0.02,0.35,0.36
26.641,-0.01,-0.23,0.18,0.29
26.651,-0.01,0.00,0.10,0.10
26.661,0.00,-0.08,-0.00,0.08
26.671,-0.08,-0.01,0.56,0.56
26.681,-0.16,-0.32,0.47,0.59
26.691,-0.09,-0.31,0.08,0.33
26.701,0.07,-0.29,0.22,0.37
26.711,0.07,0.12,0.49,0.51
26.721,-0.02,-0.12,0.62,0.63
26.731,0.01,-0.27,-0.10,0.29
26.741,0.07,-0.11,0.06,0.14
26.751,0.09,0.16,0.12,0.22
26.761,-0.08,0.03,0.27,0.29
26.771,-0.13,-0.21,-0.09,0.26
26.781,-0.05,-0.13,-0.05,0.15
26.791,0.03,-0.16,0.03,0.17
26.801,-0.01,0.20,0.29,0.36
26.811,-0.16,-0.42,0.17,0.48
26.820,-0.06,-0.22,0.04,0.23
26.831,0.02,-0.23,-0.00,0.23
26.841,0.09,0.11,0.19,0.24
26.850,-0.03,-0.13,0.46,0.48
26.860,-0.04,-0.20,-0.13,0.24
26.871,0.04,-0.14,-0.05,0.15
26.880,0.06,0.06,-0.07,0.11
26.890,-0.14,0.11,0.18,0.25
26.900,-0.11,-0.28,0.06,0.30
26.910,-0.10,-0.06,-0.32,0.34
26.920,-0.00,-0.07,-0.09,0.12
26.930,-0.08,0.18,0.25,0.32
26.941,-0.11,-0.29,0.16,0.35
26.950,-0.04,-0.25,-0.24,0.35
26.960,0.08,-0.16,-0.08,0.20
26.970,0.03,0.28,-0.13,0.31
26.980,-0.04,-0.17,0.39,0.43
26.990,0.03,-0.04,-0.09,0.11
27.000,-0.01,-0.16,-0.20,0.26
27.010,0.06,0.01,-0.14,0.15
27.020,-0.09,0.08,0.37,0.39
27.030,-0.17,-0.25,-0.06,0.31
27.040,-0.09,-0.29,-0.24,0.39
27.050,0.02,-0.11,-0.11,0.16
27.060,-0.07,0.06,0.11,0.14
27.070,-0.09,-0.20,0.21,0.30
27.080,-0.04,-0.19,-0.25,0.31
27.090,0.10,-0.30,0.14,0.35
27.100,0.04,0.16,0.06,0.18
27.110,-0.11,-0.23,0.21,0.33
27.120,0.01,-0.03,0.12,0.13
27.130,-0.08,-0.09,-0.33,0.35
27.140,0.05,-0.05,-0.14,0.16
27.150,-0.10,0.13,0.22,0.27
27.160,-0.16,-0.29,-0.13,0.36
27.170,-0.15,-0.13,-0.38,0.43
27.180,0.04,-0.21,-0.07,0.23
27.190,-0.01,0.10,0.11,0.15
27.200,-0.11,-0.41,0.38,0.57
27.210,-0.02,-0.14,-0.21,0.25
27.220,0.04,-0.14,-0.25,0.28
27.230,0.10,0.06,0.12,0.17
27.240,-0.05,-0.02,0.33,0.34
27.250,-0.07,-0.22,-0.20,0.30
27.260,-0.01,-0.05,-0.11,0.12
27.270,0.03,0.01,-0.14,0.15
27.280,-0.13,0.14,0.02,0.19
27.290,-0.10,-0.19,0.26,0.34
27.300,-0.05,-0.26,-0.38,0.46
27.310,0.05,-0.13,-0.26,0.29
27.320,0.04,0.14,0.44,0.46
27.330,-0.14,-0.29,0.14,0.35
27.340,-0.01,-0.21,-0.13,0.25
27.350,0.10,-0.09,0.02,0.13
27.360,0.04,0.05,-0.03,0.07
27.370,-0.10,0.04,0.13,0.17
27.380,-0.03,-0.07,-0.02,0.08
27.390,0.01,-0.06,-0.32,0.32
27.400,-0.02,0.01,-0.32,0.32
27.410,-0.08,0.13,0.14,0.21
27.420,-0.12,-0.24,-0.10,0.28
27.430,-0.05,-0.15,-0.28,0.32
27.440,0.11,-0.16,-0.06,0.20
27.450,-0.04,-0.02,0.14,0.15
27.460,-0.04,-0.12,0.34,0.36
27.470,-0.01,-0.30,-0.14,0.33
27.480,0.11,0.04,-0.10,0.15
27.490,0.06,0.03,0.04,0.07
27.500,-0.04,0.04,0.22,0.23
27.510,-0.04,-0.16,0.06,0.18
27.520,0.04,0.14,-0.22,0.26
27.530,-0.00,-0.10,-0.29,0.30
27.539,-0.08,0.33,0.18,0.39
27.550,-0.14,-0.34,0.15,0.40
27.559,-0.05,-0.14,-0.09,0.17
27.570,0.04,-0.13,-0.05,0.14
27.580,0.03,0.08,0.35,0.36
27.590,-0.02,-0.09,0.62,0.63
27.599,0.02,-0.26,0.16,0.30
27.609,0.04,0.03,-0.26,0.26
27.620,-0.01,0.04,0.04,0.06
27.629,-0.09,0.12,0.32,0.35
27.639,-0.03,-0.15,0.06,0.16
27.649,-0.07,0.01,-0.27,0.28
27.659,0.08,-0.02,-0.31,0.32
27.669,-0.10,0.13,0.36,0.40
27.679,-0.14,-0.27,0.19,0.36
27.689,-0.01,-0.19,0.00,0.19
27.699,0.13,-0.15,0.04,0.20
27.709,0.04,0.00,0.19,0.20
27.719,-0.08,-0.07,0.35,0.37
27.729,-0.02,-0.15,-0.11,0.19
27.739,0.03,-0.22,-0.03,0.23
27.749,0.11,0.23,0.14,0.29
27.759,-0.11,-0.01,0.37,0.38
27.769,-0.02,-0.12,0.23,0.26
27.779,-0.03,-0.19,-0.25,0.31
27.789,0.07,-0.05,-0.06,0.10
27.799,-0.07,0.17,0.47,0.50
27.809,-0.14,-0.34,0.37,0.52
27.819,-0.04,-0.13,-0.01,0.14
27.829,0.04,-0.29,0.10,0.30
27.839,0.04,0.21,0.51,0.56
27.849,-0.07,-0.19,0.57,0.60
27.859,0.03,-0.14,0.10,0.18
27.869,0.01,-0.17,-0.13,0.22
27.879,0.05,0.17,0.18,0.26
27.889,-0.06,0.25,0.51,0.57
27.899,-0.05,-0.39,0.17,0.43
27.909,-0.03,0.02,-0.13,0.13
27.919,0.04,-0.20,-0.04,0.20
27.929,-0.06,0.20,0.20,0.29
27.939,-0.11,-0.34,0.34,0.49
27.950,-0.02,-0.22,0.20,0.30
27.959,0.09,-0.25,0.07,0.27
27.969,0.01,0.15,0.35,0.38
27.979,-0.03,0.07,0.69,0.70
27.989,0.02,-0.29,0.20,0.35
27.999,0.07,0.02,-0.09,0.11
28.009,0.01,0.06,-0.02,0.06
28.019,-0.07,0.19,0.44,0.49
28.029,-0.09,-0.10,0.28,0.32
28.039,-0.03,-0.13,-0.01,0.13
28.049,0.05,-0.10,-0.02,0.11
28.059,-0.06,0.18,0.43,0.47
28.069,-0.12,-0.18,0.33,0.40
28.079,-0.02,-0.16,0.05,0.17
28.089,0.06,-0.22,0.06,0.24
28.099,0.03,0.07,0.22,0.23
28.109,-0.08,-0.00,0.46,0.47
28.119,0.01,-0.05,0.07,0.09
28.129,0.00,-0.12,-0.33,0.35
28.139,0.00,0.26,-0.25,0.36
28.149,-0.04,0.08,0.41,0.42
28.159,-0.15,-0.16,0.08,0.23
28.169,-0.03,-0.03,-0.01,0.05
28.179,0.03,-0.18,0.04,0.18
28.188,-0.08,-0.05,0.48,0.49
28.199,-0.12,-0.15,0.34,0.39
28.209,-0.05,-0.31,-0.09,0.33
28.219,0.11,-0.00,-0.06,0.12
28.229,-0.03,0.04,0.05,0.07
28.238,-0.05,0.08,0.52,0.53
28.249,0.01,-0.10,0.20,0.23
28.258,0.04,0.00,-0.15,0.15
28.269,0.04,0.10,0.00,0.11
28.278,-0.09,0.18,0.23,0.31
28.288,-0.11,-0.20,-0.01,0.23
28.298,-0.10,-0.14,-0.10,0.20
28.308,0.02,-0.06,-0.10,0.12
28.318,-0.11,0.13,0.32,0.36
28.329,-0.17,-0.30,0.44,0.56
28.338,0.02,-0.17,0.15,0.23
28.348,0.07,-0.11,-0.15,0.20
28.358,0.00,0.10,-0.08,0.13
28.368,-0.07,0.11,0.40,0.42
28.378,-0.05,-0.18,-0.12,0.22
28.388,0.01,0.06,-0.15,0.16
28.398,0.06,-0.03,0.02,0.07
28.408,-0.10,0.18,0.17,0.27
28.418,-0.16,-0.24,0.06,0.29
28.428,-0.06,-0.21,-0.14,0.26
28.438,0.04,-0.17,-0.07,0.18
28.448,-0.07,-0.01,0.25,0.26
28.458,-0.14,-0.11,0.31,0.36
28.468,-0.03,-0.26,0.02,0.26
28.478,0.05,-0.07,0.06,0.10
28.488,0.09,0.17,0.15,0.25
28.498,-0.09,-0.00,0.31,0.32
28.508,-0.03,-0.02,0.16,0.17
28.518,-0.02,-0.17,-0.00,0.17
28.528,0.07,0.14,0.01,0.16
28.538,-0.14,0.06,0.44,0.47
28.548,-0.14,-0.15,0.30,0.37
28.558,-0.10,-0.22,-0.09,0.26
28.568,0.07,-0.09,0.10,0.15
28.578,-0.06,0.05,0.32,0.33
28.588,-0.12,-0.25,0.37,0.46
28.598,0.01,-0.07,0.18,0.19
28.608,0.07,-0.14,0.06,0.17
28.618,0.08,0.15,0.18,0.25
28.628,-0.09,0.05,0.40,0.41
28.638,-0.05,-0.07,0.04,0.10
28.648,0.01,-0.04,-0.11,0.12
28.658,0.04,-0.05,0.06,0.09
28.668,-0.07,0.21,0.31,0.38
28.678,-0.14,-0.33,0.22,0.42
28.688,-0.06,-0.11,0.12,0.17
28.698,0.05,-0.20,0.02,0.21
28.708,-0.06,-0.04,0.17,0.18
28.718,-0.05,-0.03,0.48,0.48
28.728,0.04,-0.22,0.38,0.44
28.738,0.09,-0.05,0.14,0.17
28.748,0.02,0.09,0.16,0.18
28.758,-0.08,0.12,0.56,0.58
28.768,-0.03,-0.07,0.33,0.34
28.778,-0.06,-0.09,-0.10,0.15
28.788,0.01,0.00,-0.03,0.03
28.798,-0.12,0.04,0.52,0.54
28.808,-0.08,-0.15,0.40,0.43
28.818,-0.10,-0.30,-0.01,0.32
28.828,0.01,-0.08,0.05,0.10
28.838,-0.03,0.07,0.36,0.37
28.848,-0.08,-0.23,0.54,0.59
28.858,0.07,-0.04,0.33,0.34
28.868,0.06,-0.03,0.09,0.11
28.877,-0.00,0.14,0.03,0.14
28.888,-0.13,0.09,0.38,0.41
28.898,-0.04,-0.07,0.16,0.18
28.908,-0.07,-0.19,-0.15,0.25
28.918,0.05,0.11,0.14,0.19
28.927,-0.10,-0.05,0.28,0.30
28.937,-0.09,-0.20,0.33,0.40
28.947,-0.01,-0.13,0.23,0.27
28.957,0.02,-0.26,0.02,0.26
28.968,-0.07,0.19,0.24,0.31
28.977,-0.08,-0.07,0.62,0.63
28.987,0.00,-0.10,0.28,0.29
28.997,0.05,-0.15,0.25,0.29
29.007,0.09,0.26,0.26,0.37
29.017,-0.13,0.07,0.37,0.40
29.027,-0.03,-0.08,0.39,0.40
29.037,-0.02,-0.09,0.17,0.19
29.047,0.03,-0.10,-0.02,0.10
29.057,-0.09,0.19,0.44,0.49
29.067,-0.11,-0.15,0.46,0.50
29.077,-0.09,-0.17,0.11,0.22
29.087,0.04,-0.16,0.16,0.23
29.097,-0.02,0.12,0.43,0.44
29.107,-0.07,0.02,0.71,0.72
29.117,0.09,-0.07,0.48,0.49
29.127,0.02,-0.03,0.16,0.16
29.137,0.13,0.14,0.26,0.32
29.147,-0.10,0.13,0.53,0.55
29.157,-0.04,-0.08,0.37,0.38
29.167,-0.03,-0.09,0.23,0.25
29.177,0.05,-0.02,0.19,0.19
29.187,-0.09,0.16,0.45,0.49
29.197,-0.11,-0.16,0.68,0.71
29.207,-0.02,-0.11,0.29,0.31
29.217,0.03,-0.24,0.14,0.28
29.227,0.07,0.33,0.60,0.69
29.237,-0.04,-0.01,0.74,0.75
29.247,0.01,-0.05,0.38,0.38
29.257,0.04,0.02,0.11,0.12
29.267,0.13,0.17,0.03,0.21
29.277,-0.12,0.30,0.66,0.73
29.287,-0.02,-0.17,0.47,0.50
29.297,-0.07,-0.14,0.18,0.23
29.307,0.03,-0.14,0.29,0.33
29.317,-0.13,0.26,0.41,0.51
29.327,-0.15,-0.31,0.58,0.67
29.337,0.02,-0.08,0.34,0.35
29.347,0.02,-0.25,0.23,0.34
29.357,0.04,0.21,0.37,0.42
29.367,-0.07,0.17,0.55,0.58
29.377,0.04,-0.08,0.33,0.35
29.387,-0.01,-0.02,0.15,0.15
29.397,0.07,0.10,0.10,0.16
29.407,-0.11,0.17,0.34,0.39
29.417,-0.06,-0.04,0.31,0.32
29.427,-0.08,-0.21,0.15,0.27
29.437,0.02,-0.02,0.23,0.23
29.447,-0.16,0.03,0.46,0.49
29.457,-0.10,-0.06,0.73,0.74
29.467,0.03,-0.14,0.22,0.27
29.477,0.02,-0.25,0.14,0.29
29.487,0.06,0.28,0.32,0.43
29.497,-0.04,-0.04,0.49,0.50
29.507,0.02,0.05,0.26,0.26
29.517,-0.02,-0.15,-0.06,0.17
29.527,0.02,0.16,0.11,0.19
29.537,-0.05,0.22,0.51,0.56
29.546,-0.07,-0.21,0.39,0.45
29.557,-0.07,-0.08,-0.01,0.10
29.567,-0.05,-0.24,-0.02,0.25
29.576,-0.08,0.22,0.38,0.45
29.587,-0.08,-0.23,0.52,0.58
29.596,-0.00,-0.08,0.28,0.30
29.607,0.02,-0.15,0.12,0.20
29.616,-0.00,0.15,0.31,0.34
29.626,-0.06,0.08,0.59,0.60
29.636,0.04,-0.04,0.26,0.27
29.646,-0.07,-0.13,-0.15,0.21
29.656,-0.03,0.11,0.10,0.15
29.667,-0.14,0.22,0.37,0.45
29.676,-0.10,-0.27,0.22,0.36
29.686,-0.07,-0.09,-0.14,0.18
29.696,-0.08,-0.26,-0.30,0.41
29.706,-0.12,0.23,0.22,0.34
29.716,-0.10,-0.12,0.37,0.40
29.726,-0.03,-0.21,0.00,0.21
29.736,0.02,-0.09,0.07,0.11
29.746,0.05,0.15,0.09,0.18
29.756,-0.09,0.06,0.17,0.20
29.766,0.03,0.01,0.23,0.23
29.776,-0.00,-0.16,-0.19,0.25
29.786,-0.04,0.01,-0.30,0.31
29.796,-0.15,0.23,0.39,0.48
29.806,-0.10,-0.17,0.30,0.36
29.816,-0.11,-0.19,-0.12,0.25
29.826,-0.06,-0.13,-0.01,0.15
29.836,-0.06,0.15,0.28,0.32
29.846,-0.09,-0.05,0.32,0.33
29.856,0.03,-0.00,0.14,0.14
29.866,-0.02,-0.11,-0.11,0.15
29.876,-0.01,0.13,-0.02,0.13
29.886,-0.09,0.24,0.24,0.35
29.896,-0.05,-0.07,-0.05,0.10
29.906,-0.05,-0.04,-0.31,0.32
29.916,-0.02,-0.07,-0.29,0.30
29.926,-0.16,0.14,-0.05,0.22
29.936,-0.16,-0.14,0.12,0.24
29.946,-0.06,-0.18,-0.07,0.20
29.956,-0.03,-0.19,-0.18,0.27
29.966,-0.07,0.16,0.27,0.32
29.976,-0.07,0.02,0.43,0.44
29.986,-0.07,-0.18,-0.06,0.21
29.996,0.02,-0.03,-0.27,0.27
30.006,0.01,0.15,-0.10,0.19
30.016,-0.08,0.20,0.30,0.37
30.026,-0.10,-0.01,0.09,0.14
30.036,-0.06,-0.12,-0.23,0.27
30.046,0.03,0.05,-0.19,0.19
30.056,-0.15,0.17,0.28,0.36
30.066,-0.12,-0.07,0.25,0.29
30.076,-0.08,-0.17,0.04,0.19
30.086,-0.00,-0.23,-0.07,0.24
30.096,-0.10,0.21,0.25,0.34
30.106,-0.10,0.04,0.58,0.58
30.116,0.00,-0.06,0.10,0.12
30.126,-0.00,-0.13,-0.24,0.27
30.136,0.05,0.29,-0.04,0.29
30.146,-0.14,0.23,0.17,0.32
30.156,-0.05,0.01,0.09,0.10
30.166,-0.00,-0.07,-0.09,0.12
30.176,-0.01,-0.12,-0.16,0.20
30.186,-0.17,0.32,0.34,0.50
30.196,-0.10,-0.07,0.54,0.56
30.206,-0.03,-0.14,0.24,0.28
30.216,0.03,-0.17,-0.01,0.17
30.226,-0.02,0.25,0.31,0.40
30.236,-0.07,0.19,0.65,0.68
30.246,0.04,0.09,0.18,0.21
30.256,0.00,-0.08,-0.01,0.08
30.265,0.04,0.23,0.12,0.26
30.276,-0.12,0.28,0.47,0.56
30.286,-0.07,0.04,0.22,0.23
30.295,-0.05,-0.12,0.01,0.13
30.306,-0.00,-0.03,-0.03,0.04
30.316,-0.16,0.27,0.35,0.47
30.326,-0.13,-0.10,0.44,0.47
30.335,-0.02,0.06,0.32,0.33
30.345,-0.05,-0.33,-0.01,0.33
30.355,0.03,0.41,0.26,0.49
30.365,-0.06,0.12,0.60,0.62
30.375,0.01,-0.01,0.20,0.20
30.385,0.01,-0.03,-0.13,0.13
30.395,0.06,0.14,-0.01,0.15
30.405,-0.10,0.37,0.45,0.59
30.415,-0.06,-0.05,0.38,0.39
30.425,-0.11,-0.06,0.09,0.16
30.435,-0.08,-0.16,-0.03,0.18
30.445,-0.11,0.32,0.38,0.51
30.455,-0.15,-0.05,0.51,0.54
30.465,-0.02,-0.01,0.13,0.13
30.475,-0.03,-0.18,0.06,0.19
30.485,0.04,0.35,0.28,0.45
30.495,-0.07,0.15,0.44,0.47
30.505,0.04,0.14,0.22,0.26
30.515,-0.01,-0.09,-0.07,0.11
30.525,0.05,0.16,-0.06,0.18
30.535,-0.18,0.24,0.24,0.38
30.545,-0.10,0.00,0.22,0.24
30.555,-0.10,-0.03,0.05,0.11
30.565,-0.03,-0.13,0.07,0.15
30.575,-0.10,0.29,0.41,0.51
30.585,-0.08,-0.15,0.46,0.49
30.595,-0.01,-0.01,0.20,0.20
30.605,-0.02,-0.07,-0.01,0.08
30.615,0.00,0.16,0.07,0.18
30.625,-0.07,0.41,0.35,0.54
30.635,-0.05,-0.07,0.15,0.17
30.645,-0.00,0.10,-0.05,0.11
30.655,0.00,0.02,-0.04,0.05
30.665,-0.14,0.27,0.34,0.46
30.675,-0.08,-0.02,0.27,0.28
30.685,-0.11,-0.10,0.02,0.15
30.695,-0.05,0.05,-0.00,0.07
30.705,-0.14,0.16,0.12,0.25
30.715,-0.12,0.07,0.43,0.45
30.725,0.00,0.03,0.32,0.32
30.735,-0.03,-0.18,-0.02,0.19
30.745,-0.00,0.29,0.07,0.30
30.755,-0.14,0.17,0.34,0.40
30.765,-0.04,0.02,0.24,0.25
30.775,-0.06,-0.05,-0.16,0.18
30.785,-0.05,0.05,-0.27,0.28
30.795,-0.18,0.27,0.05,0.32
30.805,-0.13,-0.03,0.12,0.18
30.815,-0.08,-0.07,-0.00,0.11
30.825,-0.06,-0.09,-0.11,0.16
30.835,-0.15,0.14,0.11,0.23
30.845,-0.12,0.01,0.27,0.29
30.855,-0.01,0.00,0.04,0.04
30.865,-0.01,-0.07,-0.11,0.13
30.875,-0.02,0.17,-0.13,0.22
30.884,-0.07,0.23,0.30,0.38
30.895,-0.05,0.09,0.18,0.21
30.905,-0.11,-0.15,-0.17,0.25
30.915,-0.02,0.15,-0.01,0.15
30.924,-0.16,0.09,0.28,0.34
30.935,-0.10,-0.06,0.28,0.31
30.945,-0.02,-0.06,0.15,0.17
30.955,-0.09,-0.15,-0.03,0.17
30.965,-0.06,0.17,0.25,0.31
30.974,-0.09,0.11,0.58,0.59
30.985,-0.04,-0.02,0.32,0.32
30.994,-0.05,-0.02,-0.09,0.10
31.004,-0.00,0.19,0.06,0.20
31.015,-0.15,0.22,0.14,0.30
31.025,0.01,0.01,0.05,0.05
31.034,-0.12,-0.04,-0.18,0.22
31.044,-0.02,-0.06,-0.26,0.27
31.055,-0.22,0.26,0.03,0.34
31.064,-0.14,-0.18,0.16,0.28
31.074,-0.11,-0.01,-0.08,0.13
31.084,-0.09,-0.30,-0.19,0.37
31.094,-0.02,0.25,-0.07,0.26
31.104,-0.12,-0.19,0.36,0.43
31.114,0.04,0.08,0.16,0.18
31.124,-0.05,-0.19,-0.18,0.27
31.134,-0.00,0.15,-0.07,0.17
31.144,-0.14,0.15,0.10,0.23
31.154,-0.10,-0.03,0.09,0.14
31.164,-0.05,-0.05,-0.08,0.11
31.174,-0.09,-0.27,-0.29,0.41
31.184,-0.15,0.28,0.15,0.35
31.194,-0.13,-0.21,0.34,0.42
31.204,-0.05,-0.07,0.09,0.12
31.214,-0.04,-0.21,-0.05,0.22
31.224,-0.07,0.10,0.17,0.21
31.234,-0.11,0.07,0.39,0.41
31.244,-0.04,-0.10,0.24,0.27
31.254,-0.02,-0.10,-0.12,0.16
31.264,-0.05,-0.01,-0.08,0.09
31.274,-0.14,0.23,0.24,0.36
31.284,-0.12,-0.13,0.14,0.22
31.294,-0.08,-0.10,-0.01,0.13
31.304,-0.03,-0.10,-0.19,0.22
31.314,-0.20,0.04,0.14,0.25
31.324,-0.16,-0.13,0.45,0.49
31.334,-0.05,-0.25,0.12,0.28
31.344,0.02,-0.14,-0.08,0.16
31.354,-0.03,0.21,0.21,0.29
31.364,-0.13,0.01,0.38,0.40
31.374,-0.03,0.12,0.12,0.17
31.384,-0.06,-0.21,-0.17,0.28
31.394,0.02,0.23,-0.12,0.26
31.404,-0.18,0.10,0.26,0.33
31.414,-0.06,-0.01,0.23,0.23
31.424,-0.15,-0.20,-0.16,0.30
31.434,-0.04,-0.19,-0.12,0.23
31.444,-0.10,0.39,0.35,0.53
31.454,-0.13,-0.18,0.40,0.46
31.464,-0.07,0.04,0.08,0.11
31.474,-0.01,-0.23,-0.03,0.23
31.484,0.04,0.28,-0.00,0.28
31.494,-0.16,0.10,0.12,0.23
31.504,0.01,0.06,0.11,0.12
31.514,-0.07,-0.13,-0.32,0.35
31.524,-0.04,0.08,-0.40,0.41
31.534,-0.12,0.29,0.22,0.38
31.544,-0.11,-0.17,0.09,0.22
31.554,-0.11,-0.16,-0.05,0.20
31.564,-0.00,-0.06,-0.06,0.08
31.574,-0.11,0.07,0.07,0.15
31.584,-0.12,-0.00,0.36,0.38
31.593,-0.03,-0.11,0.18,0.22
31.604,-0.04,-0.26,-0.17,0.31
31.613,0.02,0.19,-0.11,0.22
31.623,-0.15,0.10,0.25,0.31
31.633,0.01,0.02,0.15,0.15
31.643,-0.07,-0.21,-0.10,0.24
31.654,0.01,-0.02,-0.17,0.17
31.663,-0.13,0.13,0.33,0.38
31.673,-0.13,-0.13,0.33,0.38
31.684,-0.11,-0.18,-0.09,0.24
31.693,-0.09,-0.28,-0.10,0.31
31.704,-0.10,0.16,0.15,0.24
31.713,-0.18,-0.19,0.27,0.38
31.723,-0.00,-0.12,0.17,0.21
31.733,0.00,-0.19,-0.16,0.24
31.744,0.01,-0.01,-0.07,0.07
31.753,-0.09,0.19,0.29,0.36
31.763,-0.07,-0.20,0.05,0.22
31.773,-0.08,-0.04,-0.11,0.14
31.783,-0.02,-0.14,-0.10,0.18
31.793,-0.15,0.25,0.16,0.33
31.803,-0.14,-0.12,0.21,0.28
31.813,-0.08,-0.15,-0.02,0.17
31.823,-0.06,-0.15,-0.05,0.18
31.833,-0.04,0.11,0.38,0.39
31.843,-0.09,-0.02,0.57,0.57
31.853,-0.01,-0.13,0.22,0.25
31.863,-0.00,-0.12,-0.05,0.13
31.873,-0.04,0.11,0.04,0.12
31.883,-0.13,0.17,0.30,0.37
31.893,-0.04,0.01,0.19,0.19
31.903,-0.04,-0.28,-0.12,0.31
31.913,-0.07,0.05,-0.09,0.13
31.923,-0.11,0.13,0.35,0.39
31.933,-0.10,-0.08,0.29,0.32
31.943,-0.07,-0.23,0.00,0.24
31.953,-0.02,-0.10,0.04,0.11
31.963,-0.04,0.15,0.27,0.31
31.973,-0.09,0.03,0.40,0.41
31.983,0.00,-0.03,0.21,0.21
31.993,-0.01,-0.16,-0.03,0.17
32.003,0.01,0.18,-0.02,0.19
32.013,-0.17,0.21,0.10,0.29
32.023,-0.07,0.03,0.15,0.17
32.033,-0.08,-0.11,0.09,0.16
32.043,0.01,-0.18,-0.03,0.18
32.053,-0.15,0.14,0.25,0.32
32.063,-0.11,-0.09,0.39,0.41
32.073,-0.04,-0.07,0.13,0.15
32.083,-0.06,-0.25,-0.21,0.33
32.093,-0.04,0.22,0.04,0.23
32.103,-0.10,0.08,0.41,0.43
32.113,-0.01,-0.04,-0.05,0.07
32.123,-0.08,-0.14,-0.17,0.23
32.133,0.01,0.12,-0.18,0.22
32.143,-0.19,0.06,0.09,0.22
32.153,-0.09,-0.03,0.19,0.21
32.163,-0.11,-0.17,-0.14,0.25
32.173,-0.08,-0.09,-0.25,0.28
32.183,-0.15,0.21,0.01,0.26
32.193,-0.13,-0.12,0.21,0.28
32.203,-0.05,-0.12,0.08,0.15
32.213,-0.02,-0.13,-0.21,0.24
32.223,-0.05,0.12,-0.09,0.16
32.233,-0.15,0.12,0.37,0.42
32.243,-0.02,-0.12,0.10,0.16
32.253,-0.07,-0.12,-0.39,0.42
32.263,-0.05,0.06,-0.39,0.40
32.272,-0.18,0.27,0.10,0.34
32.283,-0.13,-0.16,0.01,0.21
32.292,-0.13,-0.10,-0.16,0.23
32.303,-0.10,-0.11,-0.22,0.27
32.313,-0.19,0.12,-0.01,0.22
32.323,-0.09,0.10,0.28,0.31
32.333,-0.04,-0.22,-0.13,0.26
32.342,-0.06,-0.14,-0.44,0.47
32.352,-0.01,0.12,-0.23,0.26
32.363,-0.12,0.07,0.08,0.16
32.372,-0.06,0.02,-0.12,0.13
32.382,-0.06,-0.11,-0.26,0.29
32.392,-0.09,0.06,-0.20,0.23
32.403,-0.16,0.14,0.01,0.22
32.412,-0.10,-0.10,0.01,0.14
32.422,-0.11,-0.05,-0.21,0.25
32.432,-0.11,-0.26,-0.31,0.42
32.443,-0.10,0.26,0.01,0.27
32.452,-0.12,-0.16,0.20,0.29
32.462,-0.05,0.04,-0.04,0.08
32.472,-0.02,-0.17,-0.22,0.28
32.482,0.02,0.22,-0.23,0.32
32.492,-0.17,0.07,-0.07,0.19
32.502,-0.07,-0.02,-0.05,0.09
32.512,-0.10,-0.08,-0.21,0.24
32.522,-0.04,0.09,-0.37,0.38
32.532,-0.16,0.19,0.10,0.27
32.542,-0.10,-0.16,0.23,0.30
32.552,-0.11,-0.08,-0.33,0.36
32.562,-0.07,-0.15,-0.32,0.36
32.572,-0.07,0.26,0.12,0.29
32.582,-0.12,-0.10,0.22,0.27
32.592,-0.04,0.00,-0.03,0.05
32.602,-0.03,-0.17,-0.11,0.20
32.612,0.01,0.18,-0.30,0.35
32.622,-0.13,0.11,0.02,0.17
32.632,-0.03,0.02,-0.11,0.12
32.642,-0.11,-0.24,-0.41,0.49
32.652,-0.04,0.10,-0.32,0.34
32.662,-0.21,0.16,0.05,0.27
32.672,-0.17,-0.04,0.17,0.24
32.682,-0.07,-0.18,0.01,0.20
32.692,-0.06,-0.19,-0.17,0.26
32.702,-0.07,0.10,-0.21,0.24
32.712,-0.06,0.01,0.24,0.25
32.722,0.03,-0.02,0.08,0.08
32.732,-0.01,-0.24,-0.26,0.35
32.742,0.01,0.18,-0.21,0.28
32.752,-0.18,0.08,0.10,0.22
32.762,-0.04,0.02,0.07,0.08
32.772,-0.09,-0.32,-0.16,0.37
32.782,-0.04,-0.05,-0.14,0.15
32.792,-0.17,0.16,0.17,0.29
32.802,-0.12,-0.18,0.42,0.47
32.812,-0.05,-0.13,0.12,0.18
32.822,-0.03,-0.17,-0.11,0.20
32.832,-0.07,0.07,-0.07,0.12
32.842,-0.09,0.01,0.28,0.29
32.852,-0.01,-0.11,0.14,0.18
32.862,-0.03,-0.18,-0.22,0.29
32.872,-0.02,0.06,-0.16,0.17
32.882,-0.18,0.16,0.18,0.30
32.892,-0.09,-0.12,0.05,0.16
32.902,-0.09,-0.14,-0.14,0.22
32.912,-0.06,-0.02,-0.27,0.28
32.922,-0.15,0.04,0.10,0.18
32.932,-0.13,-0.13,0.27,0.32
32.942,-0.10,-0.26,0.04,0.28
32.952,-0.07,-0.12,-0.10,0.17
32.961,-0.07,-0.05,-0.04,0.10
32.972,-0.15,-0.02,0.15,0.21
32.982,-0.03,-0.17,0.06,0.18
32.992,-0.04,-0.19,-0.22,0.29
33.002,-0.05,0.08,-0.29,0.30
33.012,-0.18,0.04,0.11,0.22
33.022,-0.11,-0.15,0.15,0.24
33.031,-0.10,-0.16,-0.19,0.27
33.041,-0.08,-0.03,-0.32,0.33
33.052,-0.14,0.13,0.18,0.26
33.062,-0.13,-0.16,0.32,0.37
33.072,-0.08,-0.21,-0.05,0.23
33.081,-0.03,-0.23,-0.20,0.31
33.091,-0.02,0.10,-0.09,0.14
33.101,-0.11,0.00,0.38,0.40
33.111,-0.02,-0.13,0.18,0.22
33.121,-0.02,-0.14,-0.32,0.35
33.131,-0.08,0.08,-0.26,0.28
33.141,-0.18,0.21,0.22,0.36
33.151,-0.12,-0.31,0.18,0.37
33.161,-0.07,-0.02,0.06,0.09
33.171,-0.07,-0.24,-0.16,0.30
33.181,-0.16,0.20,0.02,0.26
33.191,-0.09,-0.12,0.28,0.32
33.201,-0.04,-0.22,0.03,0.23
33.211,-0.02,-0.25,-0.19,0.31
33.221,-0.07,0.16,0.03,0.18
33.231,-0.16,-0.04,0.17,0.24
33.241,-0.03,-0.12,0.16,0.20
33.251,-0.06,-0.18,-0.11,0.22
33.261,-0.10,-0.00,-0.32,0.33
33.271,-0.19,0.10,0.12,0.24
33.281,-0.07,-0.06,0.19,0.21
33.291,-0.07,-0.23,0.04,0.25
33.301,0.02,0.02,-0.10,0.10
33.311,-0.14,0.03,0.22,0.26
33.321,-0.15,-0.10,0.17,0.25
33.331,-0.07,-0.27,-0.01,0.28
33.341,-0.04,-0.21,-0.14,0.26
33.351,-0.01,0.04,-0.18,0.18
33.361,-0.19,-0.04,0.22,0.29
33.371,0.03,-0.07,0.25,0.26
33.381,-0.09,-0.23,-0.11,0.27
33.391,-0.01,0.06,-0.14,0.15
33.401,-0.21,0.09,0.03,0.23
33.411,-0.07,-0.06,0.35,0.36
33.421,-0.07,-0.27,0.00,0.28
33.431,0.00,-0.17,-0.16,0.23
33.441,-0.04,0.32,0.27,0.42
33.451,-0.17,-0.18,0.26,0.36
33.461,-0.00,-0.06,0.17,0.18
33.471,0.01,-0.32,0.12,0.34
33.481,-0.02,0.07,-0.17,0.18
33.491,-0.20,0.14,0.21,0.32
33.501,-0.08,-0.20,0.48,0.52
33.511,0.03,-0.04,-0.19,0.20
33.521,-0.03,-0.19,-0.04,0.20
33.531,-0.16,0.24,0.30,0.41
33.541,-0.09,-0.22,0.25,0.34
33.551,-0.04,-0.20,0.05,0.20
33.561,-0.03,-0.26,-0.03,0.27
33.571,-0.12,0.10,0.08,0.17
33.581,-0.14,-0.22,0.27,0.38
33.591,-0.03,-0.14,0.10,0.17
33.601,0.01,-0.14,-0.10,0.17
33.611,0.03,0.05,0.06,0.09
33.621,-0.19,0.08,0.27,0.33
33.630,0.01,-0.18,0.24,0.30
33.640,-0.09,-0.03,0.33,0.34
33.651,0.03,-0.15,-0.21,0.26
33.661,-0.23,0.14,0.40,0.49
33.671,-0.05,-0.24,0.53,0.59
33.681,-0.05,-0.25,0.13,0.28
33.691,-0.02,-0.15,-0.04,0.15
33.700,-0.11,0.16,0.23,0.30
33.710,-0.12,-0.02,0.41,0.43
33.721,-0.03,-0.20,0.21,0.29
33.730,-0.01,-0.16,0.05,0.17
33.741,0.03,0.05,-0.04,0.07
33.750,-0.21,0.12,0.41,0.48
33.760,-0.04,-0.23,0.29,0.37
33.770,-0.13,-0.11,-0.07,0.19
33.780,0.03,-0.21,0.28,0.35
33.790,-0.14,0.39,-0.16,0.44
33.800,-0.10,-0.29,0.12,0.33
33.810,0.01,0.07,0.24,0.25
33.820,-0.00,-0.19,-0.41,0.45
33.830,-0.12,-0.02,-0.11,0.16
33.840,-0.19,-0.06,0.48,0.52
33.850,-0.02,-0.23,0.04,0.23
33.860,-0.04,-0.17,-0.10,0.20
33.870,-0.03,-0.03,0.17,0.17
33.880,-0.22,0.16,0.12,0.29
33.890,-0.05,-0.23,0.30,0.38
33.900,-0.01,0.03,-0.04,0.05
33.910,0.03,-0.17,-0.13,0.22
33.920,-0.14,0.40,0.34,0.54
33.930,-0.16,-0.29,0.32,0.46
33.940,-0.11,0.03,0.05,0.13
33.950,-0.13,-0.30,-0.07,0.34
33.960,-0.09,0.24,0.10,0.27
33.970,-0.05,-0.16,0.24,0.30
33.980,0.06,-0.15,-0.05,0.17
33.990,0.00,-0.18,0.05,0.19
34.000,-0.01,-0.01,-0.07,0.07
34.010,-0.17,0.06,0.00,0.18
34.020,-0.11,-0.02,0.24,0.26
34.030,-0.04,-0.13,-0.09,0.16
34.040,-0.08,-0.21,-0.18,0.29
34.050,-0.12,0.27,0.20,0.36
34.060,-0.07,-0.16,0.24,0.29
34.070,-0.04,-0.18,0.05,0.19
34.080,-0.01,-0.23,0.04,0.23
34.090,-0.06,-0.03,0.06,0.08
34.100,-0.09,0.02,0.18,0.20
34.110,-0.05,-0.03,0.20,0.21
34.120,-0.05,-0.17,-0.09,0.20
34.130,-0.11,0.05,0.00,0.12
34.140,-0.16,0.21,0.22,0.34
34.150,0.01,-0.09,0.21,0.23
34.160,-0.09,-0.12,-0.16,0.22
34.170,-0.04,-0.26,-0.19,0.32
34.180,-0.06,0.17,0.18,0.26
34.190,-0.10,-0.16,0.27,0.33
34.200,-0.05,-0.11,0.06,0.13
34.210,-0.00,-0.26,0.03,0.26
34.220,-0.09,0.05,-0.04,0.11
34.230,-0.07,0.06,0.36,0.37
34.240,-0.01,-0.13,0.11,0.17
34.250,-0.05,-0.12,-0.09,0.15
34.260,-0.03,-0.02,-0.14,0.15
34.270,-0.14,0.17,0.07,0.23
34.280,-0.01,-0.01,0.27,0.27
34.290,-0.11,-0.10,-0.17,0.22
34.300,-0.04,-0.25,-0.06,0.26
34.310,-0.13,0.23,0.25,0.36
34.320,0.05,-0.24,0.80,0.84
34.329,-0.09,-0.15,-0.09,0.19
34.340,-0.00,-0.24,-0.00,0.24
34.350,0.02,0.18,0.21,0.28
34.359,-0.09,-0.15,0.50,0.53
34.369,0.04,-0.00,0.03,0.05
34.379,-0.04,-0.16,-0.15,0.22
34.389,0.17,0.12,-0.09,0.23
34.399,-0.19,0.15,0.34,0.42
34.409,0.00,-0.15,0.25,0.29
34.420,-0.09,-0.18,0.10,0.22
34.429,0.02,-0.14,-0.25,0.29
34.439,-0.15,0.19,0.23,0.34
34.449,-0.07,-0.15,0.52,0.54
34.459,-0.00,-0.12,0.14,0.19
34.469,-0.01,-0.31,0.04,0.31
34.479,-0.03,0.11,0.01,0.12
34.489,-0.05,0.08,0.42,0.43
34.499,0.04,-0.08,0.16,0.18
34.509,-0.02,-0.09,-0.02,0.10
34.519,-0.00,-0.11,-0.13,0.17
34.529,-0.06,0.18,0.09,0.21
34.539,-0.02,-0.15,0.17,0.23
34.549,-0.06,0.01,-0.15,0.16
34.559,-0.03,-0.29,-0.23,0.37
34.569,-0.02,0.09,0.27,0.28
34.579,-0.07,-0.00,0.28,0.28
34.589,-0.04,-0.20,0.01,0.20
34.599,0.07,-0.22,0.15,0.27
34.609,0.01,-0.00,-0.07,0.07
34.619,-0.11,-0.02,0.08,0.14
34.629,0.03,-0.01,0.10,0.11
34.639,-0.02,-0.04,-0.30,0.30
34.649,0.07,-0.24,-0.20,0.32
34.659,-0.14,0.21,0.17,0.31
34.669,-0.09,-0.29,0.20,0.37
34.679,-0.12,-0.15,-0.13,0.23
34.689,0.05,-0.35,0.05,0.35
34.699,-0.14,0.10,-0.14,0.22
34.709,-0.13,-0.15,0.11,0.23
34.719,-0.04,0.04,-0.10,0.12
34.729,0.10,-0.22,0.03,0.24
34.739,-0.02,-0.02,-0.28,0.28
34.749,-0.22,0.07,-0.14,0.27
34.759,-0.06,-0.29,-0.01,0.29
34.769,-0.07,-0.02,-0.16,0.17
34.779,-0.01,-0.19,-0.33,0.39
34.789,-0.15,0.17,-0.02,0.23
34.799,-0.04,-0.23,0.10,0.25
34.809,-0.11,-0.14,-0.13,0.21
34.819,-0.02,-0.36,-0.23,0.43
34.829,-0.17,0.07,0.04,0.19
34.839,-0.06,-0.03,0.20,0.21
34.849,0.08,-0.16,0.05,0.18
34.859,-0.06,-0.22,-0.18,0.29
34.869,-0.05,0.04,-0.44,0.44
34.879,0.01,0.03,0.10,0.11
34.889,-0.03,0.06,-0.11,0.13
34.899,-0.02,-0.19,-0.20,0.27
34.909,0.03,-0.07,-0.21,0.22
34.919,-0.17,0.10,-0.06,0.21
34.929,-0.12,-0.25,0.21,0.35
34.939,-0.04,-0.04,0.02,0.06
34.949,-0.01,-0.33,-0.05,0.33
34.959,-0.07,0.05,-0.10,0.13
34.969,-0.10,-0.15,0.15,0.24
34.979,0.05,-0.08,0.10,0.14
34.989,0.05,-0.11,-0.03,0.12
34.999,0.02,-0.05,-0.26,0.27
35.009,-0.10,-0.03,0.15,0.18
35.019,-0.05,-0.06,-0.07,0.10
35.029,-0.05,-0.09,-0.31,0.33
35.039,0.00,-0.14,-0.24,0.28
35.048,-0.18,0.00,-0.16,0.24
35.058,-0.09,-0.26,0.05,0.28
35.069,0.00,-0.19,-0.13,0.23
35.078,0.05,-0.21,-0.04,0.22
35.088,-0.05,-0.06,-0.24,0.26
35.098,-0.05,-0.19,0.04,0.20
35.108,0.05,-0.03,0.08,0.10
35.118,0.04,-0.19,-0.16,0.25
35.128,-0.02,-0.00,-0.24,0.24
35.138,-0.13,0.05,0.02,0.14
35.148,-0.07,-0.11,-0.19,0.23
35.158,0.01,-0.17,-0.24,0.29
35.168,-0.02,-0.09,-0.51,0.52
35.178,-0.14,0.00,-0.36,0.39
35.188,-0.14,-0.11,-0.10,0.20
35.198,-0.05,-0.17,-0.17,0.24
35.208,0.01,-0.24,-0.29,0.38
35.218,-0.01,-0.03,-0.18,0.18
35.228,-0.08,-0.08,0.19,0.22
35.238,0.09,-0.00,-0.07,0.11
35.248,-0.02,-0.24,-0.13,0.28
35.258,0.06,0.09,-0.31,0.32
35.268,-0.22,-0.11,-0.40,0.47
35.278,-0.02,-0.06,-0.23,0.24
35.288,-0.13,-0.12,-0.36,0.40
35.298,-0.09,-0.26,-0.49,0.56
35.308,-0.23,-0.06,-0.25,0.35
35.318,-0.11,-0.26,-0.02,0.28
35.328,-0.06,-0.16,-0.27,0.32
35.338,0.00,-0.30,-0.16,0.34
35.348,-0.06,0.05,-0.40,0.40
35.358,-0.07,-0.11,-0.08,0.16
35.368,0.08,0.01,-0.09,0.12
35.378,-0.05,-0.10,-0.30,0.32
35.388,-0.00,-0.07,-0.49,0.50
35.398,-0.16,0.12,-0.16,0.26
35.408,-0.11,-0.19,-0.26,0.34
35.418,-0.06,-0.18,-0.33,0.38
35.428,-0.05,-0.15,-0.42,0.45
35.438,-0.19,-0.08,-0.31,0.37
35.448,-0.08,-0.24,0.12,0.28
35.458,0.01,-0.13,-0.13,0.18
35.468,-0.02,-0.27,-0.23,0.35
35.478,-0.02,0.09,-0.27,0.28
35.488,-0.17,-0.06,-0.04,0.18
35.498,0.05,-0.08,-0.03,0.10
35.508,-0.03,-0.07,-0.32,0.33
35.518,-0.03,-0.13,-0.45,0.47
35.528,-0.12,0.08,-0.28,0.32
35.538,-0.10,-0.22,-0.33,0.41
35.548,-0.06,-0.15,-0.59,0.61
35.558,-0.06,-0.33,-0.58,0.67
35.568,-0.12,0.08,-0.43,0.46
35.578,-0.10,-0.19,-0.13,0.26
35.588,0.05,-0.07,-0.31,0.32
35.598,0.05,-0.19,-0.38,0.42
35.608,-0.01,-0.03,-0.31,0.31
35.618,-0.10,0.09,-0.16,0.21
35.628,0.02,-0.04,-0.24,0.24
35.638,0.02,-0.07,-0.12,0.15
35.648,0.16,-0.22,-0.58,0.64
35.657,0.21,-0.56,-0.54,0.81
35.668,0.02,-0.07,-0.15,0.17
35.677,-0.11,-0.06,-0.33,0.36
35.688,-0.08,-0.14,-0.38,0.41
35.698,-0.07,-0.18,-0.02,0.20
35.708,-0.15,-0.30,-0.01,0.33
35.718,-0.09,-0.01,0.02,0.09
35.728,-0.14,0.14,-0.26,0.32
35.738,-0.12,0.02,-0.56,0.57
35.747,-0.13,0.03,-0.40,0.42
35.758,-0.01,-0.11,-0.29,0.31
35.768,-0.04,-0.15,-0.55,0.57
35.778,-0.01,-0.20,-0.53,0.57
35.788,-0.07,0.07,-0.42,0.43
35.797,0.23,-0.16,-0.40,0.49
35.808,-0.10,-0.16,-0.59,0.62
35.817,-0.05,-0.47,-0.10,0.49
35.827,-0.34,-0.11,-0.16,0.39
35.837,-0.21,-0.39,0.52,0.69
35.847,0.03,-0.10,0.20,0.23
35.857,0.09,-0.29,-0.12,0.32
35.867,0.04,-0.01,-0.29,0.29
35.877,-0.12,0.03,-0.02,0.12
35.887,-0.01,-0.14,-0.21,0.25
35.897,-0.05,-0.20,-0.23,0.31
35.907,0.03,-0.20,-0.52,0.56
35.917,-0.12,-0.10,-0.32,0.36
35.927,-0.18,-0.23,-0.00,0.30
35.937,-0.07,-0.27,-0.28,0.39
35.947,0.03,-0.31,-0.25,0.40
35.957,-0.08,-0.15,-0.27,0.32
35.967,-0.03,-0.24,0.00,0.25
35.977,0.12,-0.21,0.07,0.25
35.987,0.06,-0.35,-0.10,0.37
35.997,-0.02,-0.10,-0.29,0.30
36.007,-0.16,-0.20,0.00,0.26
36.017,-0.00,-0.18,-0.15,0.23
36.027,0.01,-0.22,-0.20,0.30
36.037,-0.03,-0.17,-0.31,0.35
36.047,-0.13,-0.05,-0.19,0.24
36.057,-0.50,0.13,0.16,0.54
36.067,-0.05,0.08,0.02,0.09
36.077,0.28,-0.56,0.06,0.63
36.087,0.07,-0.28,-0.23,0.37
36.097,0.03,-0.41,0.20,0.46
36.107,0.01,-0.15,0.06,0.16
36.117,-0.03,-0.13,-0.01,0.14
36.127,0.03,0.05,-0.37,0.38
36.137,0.02,-0.33,-0.32,0.46
36.147,0.09,-0.24,-0.28,0.38
36.157,0.06,-0.39,-0.21,0.45
36.167,0.08,-0.45,-0.27,0.53
36.177,-0.09,-0.29,0.01,0.30
36.187,-0.10,-0.33,0.03,0.35
36.197,0.00,-0.38,-0.20,0.43
36.207,0.12,-0.45,-0.23,0.52
36.217,-0.49,-0.48,0.21,0.71
36.227,-0.38,-0.35,0.14,0.53
36.237,-0.08,-0.02,-0.01,0.08
36.247,-0.19,0.06,-0.17,0.26
36.257,-0.02,-0.09,-0.39,0.40
36.267,0.17,-0.28,-0.35,0.49
36.277,-0.00,-0.34,-0.18,0.39
36.287,0.08,-0.27,-0.45,0.53
36.297,-0.13,-0.47,-0.10,0.50
36.307,0.06,-0.18,-0.24,0.31
36.317,0.26,-0.49,-0.21,0.59
36.327,0.15,-0.30,-0.33,0.47
36.337,0.04,-0.43,-0.17,0.46
36.347,-0.06,-0.30,-0.40,0.50
36.357,-0.09,-0.28,-0.03,0.30
36.366,-0.03,-0.16,-0.20,0.25
36.376,-0.05,-0.35,-0.22,0.42
36.386,-0.04,-0.24,-0.11,0.27
36.397,-0.23,-0.29,-0.10,0.38
36.407,-0.22,-0.40,0.08,0.46
36.416,0.02,-0.29,-0.05,0.29
36.427,0.27,-0.34,-0.95,1.04
36.437,-0.10,-0.19,-0.40,0.46
36.446,-0.11,-0.33,0.09,0.36
36.456,-0.06,-0.42,-0.32,0.53
36.466,0.12,-0.44,0.00,0.46
36.477,0.01,-0.22,-0.11,0.25
36.486,-0.09,-0.26,-0.05,0.28
36.496,0.01,-0.29,-0.16,0.33
36.506,0.05,-0.28,-0.18,0.34
36.516,-0.01,-0.30,-0.28,0.41
36.526,-0.19,-0.21,-0.29,0.40
36.536,-0.20,-0.66,-0.10,0.70
36.546,0.04,-0.16,-0.27,0.32
36.556,0.07,-0.42,-0.25,0.49
36.566,-0.11,-0.35,-0.14,0.39
36.576,-0.05,-0.41,0.21,0.46
36.586,0.03,-0.32,0.09,0.34
36.596,0.08,-0.41,-0.05,0.42
36.606,0.02,-0.24,-0.01,0.24
36.616,-0.11,-0.39,0.11,0.42
36.626,-0.08,-0.21,-0.08,0.24
36.636,-0.35,-0.35,-0.21,0.53
36.646,-0.25,-0.39,-0.19,0.50
36.656,-0.06,-0.14,-0.01,0.15
36.666,0.04,-0.28,0.18,0.33
36.676,-0.02,-0.23,-0.16,0.28
36.686,0.07,-0.47,-0.02,0.47
36.696,0.01,-0.07,-0.10,0.12
36.706,0.05,-0.34,-0.07,0.35
36.716,0.12,-0.28,-0.13,0.33
36.726,0.08,-0.31,0.22,0.39
36.736,0.05,-0.21,-0.12,0.25
36.746,-0.05,-0.12,0.18,0.22
36.756,-0.02,-0.35,0.11,0.37
36.766,0.05,-0.28,-0.00,0.28
36.776,0.05,-0.22,-0.14,0.27
36.786,-0.12,-0.23,0.19,0.32
36.796,-0.11,-0.46,0.21,0.51
36.806,-0.03,-0.32,0.27,0.42
36.816,0.05,-0.34,0.17,0.38
36.826,-0.06,-0.22,0.24,0.33
36.836,-0.05,-0.32,0.36,0.49
36.846,0.04,-0.16,0.19,0.25
36.856,0.04,-0.28,0.33,0.43
36.866,0.02,-0.14,0.09,0.17
36.876,-0.07,-0.24,0.10,0.27
36.886,0.07,-0.19,0.27,0.34
36.896,0.01,-0.25,-0.02,0.25
36.906,0.04,-0.30,-0.08,0.31
36.916,-0.07,-0.17,0.22,0.29
36.926,-0.06,-0.41,0.25,0.48
36.936,-0.02,-0.29,0.34,0.44
36.946,0.02,-0.38,0.44,0.58
36.956,-0.06,-0.21,0.27,0.35
36.966,-0.07,-0.29,0.25,0.39
36.976,0.01,-0.09,-0.19,0.21
36.986,0.03,-0.31,-0.09,0.32
36.996,0.01,-0.03,-0.14,0.14
37.006,-0.15,-0.52,0.11,0.55
37.016,0.03,-0.17,0.07,0.19
37.026,0.03,-0.37,0.01,0.37
37.036,0.02,-0.31,-0.18,0.35
37.046,-0.18,-0.20,-0.08,0.28
37.055,-0.09,-0.35,0.02,0.36
37.066,-0.02,-0.29,0.08,0.30
37.075,0.03,-0.35,0.03,0.35
37.086,-0.09,-0.18,0.17,0.26
37.095,-0.09,-0.34,0.17,0.39
37.105,0.07,-0.36,0.19,0.42
37.116,0.06,-0.37,0.09,0.38
37.125,0.01,-0.26,-0.25,0.36
37.136,-0.11,-0.25,0.32,0.42
37.145,-0.03,-0.22,0.16,0.28
37.156,-0.06,-0.43,0.31,0.54
37.165,-0.03,-0.18,0.05,0.19
37.176,-0.18,-0.30,0.21,0.41
37.186,-0.08,-0.27,0.29,0.41
37.196,-0.01,-0.40,0.02,0.40
37.205,0.02,-0.49,0.02,0.49
37.215,-0.09,-0.25,0.00,0.27
37.225,-0.04,-0.39,0.20,0.44
37.235,0.01,-0.18,0.02,0.18
37.245,-0.03,-0.35,-0.04,0.35
37.255,-0.19,-0.21,-0.02,0.28
37.265,0.06,-0.12,0.23,0.27
37.275,-0.03,-0.38,0.18,0.43
37.285,-0.10,-0.25,0.09,0.28
37.295,-0.12,-0.30,-0.06,0.33
37.305,-0.15,-0.27,0.27,0.41
37.315,-0.04,-0.32,0.28,0.43
37.325,-0.02,-0.39,0.15,0.42
37.335,0.00,-0.36,0.19,0.41
37.345,-0.06,-0.17,0.07,0.19
37.355,-0.03,-0.34,0.46,0.57
37.365,0.05,-0.36,0.44,0.57
37.375,-0.00,-0.33,0.17,0.37
37.385,-0.03,-0.18,0.05,0.19
37.395,-0.14,-0.14,0.18,0.27
37.405,-0.05,-0.33,0.17,0.38
37.415,-0.06,-0.34,0.10,0.36
37.425,0.02,-0.40,0.23,0.47
37.435,-0.18,-0.19,-0.08,0.28
37.445,-0.08,-0.54,0.33,0.64
37.455,0.05,-0.14,0.39,0.41
37.465,-0.03,-0.48,0.11,0.49
37.475,-0.06,-0.18,0.14,0.23
37.485,-0.02,-0.20,0.61,0.64
37.495,0.03,-0.32,0.11,0.34
37.505,0.05,-0.34,0.37,0.50
37.515,-0.01,-0.15,0.04,0.15
37.525,-0.13,-0.20,0.30,0.38
37.535,-0.01,-0.31,0.44,0.54
37.545,-0.07,-0.22,0.00,0.23
37.555,-0.04,-0.29,-0.06,0.30
37.565,-0.12,-0.07,0.59,0.60
37.575,-0.00,-0.30,0.67,0.73
37.585,0.06,-0.43,0.40,0.59
37.595,0.09,-0.36,0.33,0.50
37.605,-0.01,-0.19,0.28,0.34
37.615,-0.08,-0.18,0.53,0.57
37.625,-0.01,-0.18,0.37,0.41
37.635,-0.02,-0.25,0.25,0.36
37.645,0.00,-0.10,0.05,0.12
37.655,-0.16,-0.19,0.47,0.53
37.665,-0.04,-0.26,0.29,0.39
37.675,-0.00,-0.42,0.22,0.47
37.685,0.07,-0.35,0.31,0.47
37.695,-0.10,-0.11,0.31,0.34
37.705,-0.10,-0.30,0.34,0.46
37.714,0.05,-0.19,0.41,0.46
37.725,0.05,-0.27,0.28,0.39
37.735,-0.00,-0.13,0.25,0.28
37.745,-0.14,-0.10,0.31,0.35
37.755,-0.06,-0.20,0.09,0.23
37.765,0.03,-0.25,0.36,0.44
37.774,0.05,-0.08,0.02,0.10
37.785,-0.14,-0.16,0.16,0.26
37.795,-0.11,-0.11,0.39,0.42
37.804,-0.04,-0.34,0.31,0.46
37.815,0.03,-0.31,0.28,0.42
37.824,-0.07,-0.22,0.48,0.53
37.834,-0.12,-0.24,0.39,0.47
37.845,0.03,-0.26,0.28,0.38
37.854,0.07,-0.23,0.22,0.33
37.865,0.03,-0.13,0.18,0.22
37.874,-0.15,-0.03,0.21,0.26
37.884,-0.06,-0.18,0.25,0.32
37.894,-0.09,-0.18,0.00,0.20
37.905,0.02,-0.21,0.13,0.25
37.914,-0.14,-0.06,0.26,0.30
37.924,-0.12,-0.38,0.28,0.49
37.934,-0.01,-0.15,0.19,0.24
37.944,0.04,-0.35,0.29,0.46
37.954,-0.05,-0.04,0.24,0.25
37.964,-0.09,-0.26,0.42,0.50
37.974,0.00,-0.07,0.33,0.34
37.984,0.03,-0.29,0.19,0.35
37.994,0.04,0.04,0.14,0.15
38.004,-0.15,-0.06,0.20,0.25
38.014,-0.07,-0.05,0.04,0.09
38.024,-0.05,-0.14,0.03,0.15
38.034,0.07,-0.17,0.27,0.32
38.044,-0.11,0.04,0.07,0.13
38.054,-0.14,-0.25,0.30,0.42
38.064,-0.10,-0.09,0.27,0.30
38.074,0.06,-0.33,0.25,0.42
38.084,-0.12,0.01,0.29,0.32
38.094,-0.07,-0.16,0.55,0.58
38.104,0.05,-0.05,0.27,0.28
38.114,0.06,-0.23,0.18,0.30
38.124,0.03,0.05,0.06,0.08
38.134,-0.15,-0.06,0.56,0.58
38.144,-0.03,-0.12,0.27,0.30
38.154,-0.02,-0.11,0.37,0.39
38.164,-0.01,-0.13,0.27,0.30
38.174,-0.15,0.02,0.51,0.53
38.184,-0.05,-0.15,0.64,0.66
38.194,0.01,-0.03,0.21,0.21
38.204,0.11,-0.16,0.43,0.47
38.214,-0.08,0.01,0.38,0.39
38.224,-0.10,-0.13,0.57,0.59
38.234,0.04,0.01,0.70,0.70
38.244,0.02,-0.20,0.37,0.43
38.254,0.06,0.01,0.23,0.24
38.264,-0.12,-0.04,0.35,0.37
38.274,0.01,0.01,0.38,0.38
38.284,0.02,-0.01,0.43,0.43
38.294,0.04,-0.10,0.30,0.32
38.304,-0.13,-0.00,0.47,0.49
38.314,-0.07,-0.22,0.52,0.57
38.324,0.01,-0.02,0.42,0.43
38.334,0.08,-0.13,0.56,0.58
38.344,-0.03,-0.07,0.42,0.42
38.354,-0.10,-0.20,0.39,0.45
38.364,0.10,-0.03,0.50,0.52
38.374,0.01,0.02,0.21,0.21
38.384,-0.03,-0.03,-0.03,0.05
38.394,-0.21,0.03,0.29,0.36
38.404,-0.07,-0.16,0.14,0.22
38.414,-0.01,-0.22,-0.01,0.22
38.423,-0.02,-0.13,-0.01,0.13
38.434,-0.16,-0.14,0.11,0.24
38.444,-0.16,-0.23,0.03,0.29
38.453,-0.01,-0.26,-0.11,0.28
38.464,-0.01,-0.24,-0.12,0.26
38.473,-0.17,-0.03,-0.40,0.44
38.483,-0.18,-0.12,-0.18,0.28
38.493,-0.05,-0.02,-0.15,0.16
38.503,-0.05,-0.21,-0.29,0.36
38.513,-0.12,-0.06,-0.37,0.39
38.523,-0.27,-0.13,-0.30,0.42
38.533,-0.10,-0.12,-0.10,0.18
38.543,-0.05,-0.16,-0.22,0.27
38.553,-0.08,-0.28,-0.37,0.48
38.563,-0.22,-0.28,-0.34,0.50
38.573,-0.11,-0.26,-0.22,0.36
38.583,-0.06,-0.12,-0.17,0.22
38.593,-0.04,-0.31,-0.16,0.36
38.603,-0.17,-0.21,-0.38,0.47
38.613,-0.20,-0.24,-0.16,0.35
38.623,-0.08,-0.02,-0.18,0.19
38.633,-0.06,-0.08,-0.25,0.27
38.643,-0.10,-0.10,-0.40,0.42
38.653,-0.26,-0.22,-0.33,0.47
38.663,-0.12,-0.24,-0.08,0.28
38.673,-0.03,-0.22,-0.05,0.23
38.683,-0.06,-0.29,-0.09,0.31
38.693,-0.17,-0.26,0.02,0.31
38.703,-0.17,-0.31,0.01,0.36
38.713,0.04,-0.17,0.02,0.17
38.723,-0.05,-0.18,-0.02,0.19
38.733,-0.12,-0.05,-0.10,0.16
38.743,-0.22,-0.14,-0.11,0.28
38.753,-0.04,-0.24,-0.03,0.25
38.763,-0.02,-0.05,-0.09,0.10
38.773,-0.09,-0.10,-0.07,0.15
38.783,-0.23,-0.01,-0.10,0.25
38.793,-0.10,-0.22,-0.11,0.27
38.803,0.00,-0.21,-0.05,0.21
38.813,-0.02,-0.19,-0.09,0.21
38.823,-0.17,-0.14,-0.15,0.27
38.833,-0.18,-0.16,-0.01,0.25
38.843,0.00,-0.20,0.11,0.23
38.853,-0.01,-0.23,-0.06,0.24
38.863,-0.07,-0.17,-0.06,0.20
38.873,-0.18,-0.08,0.06,0.21
38.883,-0.03,-0.13,0.06,0.15
38.893,0.01,-0.10,-0.05,0.12
38.903,-0.04,-0.19,-0.02,0.19
38.913,-0.25,-0.06,-0.07,0.27
38.923,-0.14,-0.23,0.03,0.27
38.933,-0.03,-0.18,-0.00,0.19
38.943,0.02,-0.23,0.05,0.24
38.953,-0.13,-0.18,0.02,0.22
38.963,-0.20,-0.28,-0.02,0.35
38.973,0.01,-0.17,0.01,0.17
38.983,0.01,-0.15,0.03,0.16
38.993,-0.04,-0.10,-0.01,0.11
39.003,-0.17,-0.13,0.10,0.24
39.013,-0.02,-0.19,0.17,0.26
39.023,0.01,-0.11,0.17,0.20
39.033,0.01,-0.10,0.06,0.11
39.043,-0.22,-0.08,0.04,0.24
39.053,-0.16,-0.25,0.08,0.30
39.063,-0.05,-0.13,-0.02,0.14
39.073,-0.01,-0.26,0.06,0.27
39.083,-0.08,-0.07,0.10,0.14
39.093,-0.21,-0.18,0.01,0.28
39.103,-0.00,-0.11,0.16,0.19
39.112,0.07,-0.12,0.20,0.24
39.122,-0.00,-0.10,0.04,0.11
39.132,-0.14,0.01,0.14,0.20
39.142,-0.11,-0.03,0.07,0.13
39.152,-0.03,-0.13,-0.05,0.14
39.163,0.05,-0.09,0.07,0.12
39.172,-0.17,0.01,-0.00,0.17
39.183,-0.17,-0.17,-0.16,0.29
39.193,-0.05,-0.10,0.07,0.13
39.202,-0.01,-0.22,-0.00,0.22
39.212,-0.09,-0.14,-0.08,0.19
39.222,-0.16,-0.13,0.11,0.23
39.232,-0.04,-0.05,0.03,0.07
39.242,0.05,-0.16,0.12,0.20
39.252,0.03,0.00,0.09,0.10
39.262,-0.18,-0.01,0.00,0.18
39.272,-0.07,0.01,0.11,0.13
39.282,-0.04,-0.03,0.11,0.12
39.292,-0.02,-0.15,0.07,0.16
39.302,-0.16,-0.08,0.17,0.24
39.312,-0.11,-0.11,0.12,0.20
39.322,-0.07,-0.18,-0.11,0.22
39.332,0.07,-0.18,-0.03,0.19
39.342,-0.14,-0.07,-0.10,0.19
39.352,-0.11,-0.07,-0.02,0.13
39.362,-0.05,0.02,-0.20,0.20
39.372,0.00,-0.10,-0.02,0.11
39.382,-0.04,0.10,0.06,0.12
39.392,-0.21,-0.08,0.04,0.23
39.402,-0.06,-0.03,-0.05,0.08
39.412,-0.01,-0.08,0.03,0.09
39.422,-0.01,-0.04,-0.18,0.18
39.432,-0.15,-0.02,-0.17,0.23
39.442,-0.09,-0.16,0.02,0.19
39.452,-0.01,-0.11,-0.07,0.13
39.462,0.01,-0.24,0.00,0.24
39.472,-0.11,-0.03,0.02,0.12
39.482,-0.17,-0.09,0.16,0.25
39.492,-0.01,-0.04,0.07,0.08
39.502,0.03,-0.10,0.07,0.13
39.512,-0.04,0.07,0.01,0.08
39.522,-0.21,0.02,0.03,0.22
39.532,-0.05,-0.09,-0.05,0.11
39.542,0.01,0.01,-0.12,0.12
39.552,-0.03,-0.10,-0.13,0.16
39.562,-0.19,-0.01,-0.11,0.22
39.572,-0.11,-0.16,-0.13,0.24
39.582,0.02,-0.13,-0.10,0.17
39.592,0.02,-0.15,-0.03,0.15
39.602,-0.10,-0.06,-0.10,0.16
39.612,-0.13,-0.12,0.19,0.26
39.622,0.01,0.05,-0.05,0.07
39.632,0.01,-0.04,0.02,0.04
39.642,-0.03,0.08,0.08,0.12
39.652,-0.22,-0.01,0.01,0.22
39.662,-0.06,-0.13,0.09,0.17
39.672,-0.04,-0.06,-0.05,0.09
39.682,0.02,-0.11,-0.10,0.15
39.692,-0.18,-0.00,0.02,0.18
39.702,-0.10,-0.22,0.25,0.35
39.712,0.01,-0.18,0.05,0.19
39.721,0.06,-0.20,0.11,0.24
39.732,-0.12,0.02,0.03,0.12
39.741,-0.17,-0.17,0.27,0.36
39.752,-0.02,-0.01,0.17,0.17
39.761,0.04,-0.10,0.07,0.12
39.772,0.02,-0.04,0.20,0.20
39.782,-0.19,0.05,0.14,0.24
39.792,-0.07,-0.15,0.04,0.17
39.802,-0.04,-0.10,0.06,0.12
39.812,0.02,-0.09,0.05,0.10
39.821,-0.15,-0.05,0.05,0.17
39.832,-0.11,-0.21,0.16,0.29
39.841,0.02,-0.09,0.08,0.13
39.851,0.04,-0.12,0.22,0.26
39.861,-0.10,-0.03,0.11,0.15
39.871,-0.16,-0.13,0.20,0.29
39.882,0.01,-0.07,0.26,0.27
39.891,0.05,-0.07,0.29,0.30
39.901,-0.00,0.03,0.10,0.10
39.911,-0.19,-0.13,0.17,0.28
39.921,-0.06,-0.16,0.04,0.17
39.932,-0.03,-0.11,0.02,0.12
39.941,0.00,-0.05,0.01,0.05
39.951,-0.15,-0.13,0.14,0.24
39.961,-0.15,-0.28,0.14,0.35
39.971,-0.01,-0.18,-0.07,0.20
39.981,0.05,-0.07,0.09,0.13
39.991,-0.10,0.02,0.02,0.10
40.001,-0.17,-0.14,0.17,0.28
40.011,0.01,-0.17,0.21,0.27
40.021,0.03,-0.14,0.14,0.20
40.031,0.01,0.02,-0.09,0.10
40.041,-0.17,-0.00,0.03,0.17
40.051,-0.07,-0.15,-0.13,0.21
40.061,0.03,-0.23,-0.11,0.26
40.071,0.03,-0.15,0.01,0.15
40.081,-0.14,-0.06,-0.05,0.17
40.091,-0.13,-0.24,0.06,0.28
40.101,-0.02,-0.09,0.05,0.10
40.111,0.02,-0.16,0.05,0.17
40.121,-0.06,-0.04,0.04,0.09
40.131,-0.14,-0.13,0.11,0.22
40.141,0.03,-0.10,0.03,0.11
40.151,0.06,-0.12,0.13,0.19
40.161,0.03,-0.04,-0.03,0.06
40.171,-0.16,-0.24,0.02,0.28
40.181,-0.12,-0.13,-0.12,0.22
40.191,-0.00,-0.12,-0.03,0.12
40.201,0.02,-0.12,-0.20,0.24
40.211,-0.14,-0.15,-0.02,0.21
40.221,-0.12,-0.22,-0.12,0.28
40.231,0.04,-0.19,-0.05,0.20
40.241,0.07,-0.11,0.00,0.13
40.251,-0.04,0.01,-0.09,0.10
40.261,-0.14,-0.12,0.14,0.23
40.271,-0.03,-0.10,-0.04,0.11
40.281,0.01,-0.12,-0.18,0.21
40.291,0.02,-0.11,-0.07,0.13
40.301,-0.17,-0.02,-0.15,0.23
40.311,-0.13,-0.37,-0.36,0.53
40.321,0.02,-0.17,-0.31,0.35
40.331,0.03,-0.23,-0.18,0.29
40.341,-0.08,-0.05,-0.22,0.24
40.351,-0.17,-0.27,-0.24,0.40
40.361,-0.06,-0.25,-0.36,0.44
40.371,0.04,-0.10,-0.26,0.29
40.381,0.01,0.07,-0.37,0.38
40.391,-0.17,-0.08,-0.40,0.44
40.401,-0.08,-0.09,-0.43,0.45
40.411,-0.02,-0.13,-0.34,0.36
40.421,0.03,-0.16,-0.44,0.47
40.431,-0.21,-0.13,-0.50,0.55
40.441,-0.25,-0.30,-0.50,0.64
40.451,-0.08,-0.20,-0.42,0.47
40.460,0.04,-0.26,-0.25,0.37
40.470,-0.07,-0.15,-0.32,0.36
40.481,-0.16,-0.16,-0.16,0.27
40.490,-0.04,-0.13,-0.37,0.39
40.500,0.11,-0.12,-0.23,0.28
40.511,0.06,0.02,-0.33,0.34
40.520,-0.18,-0.13,-0.44,0.49
40.530,-0.13,-0.09,-0.43,0.46
40.540,-0.06,-0.21,-0.49,0.54
40.550,0.03,-0.17,-0.48,0.51
40.560,-0.18,-0.12,-0.43,0.48
40.570,-0.16,-0.25,-0.55,0.62
40.580,0.00,-0.18,-0.36,0.40
40.590,0.08,-0.28,-0.27,0.40
40.600,-0.00,-0.08,-0.35,0.35
40.610,-0.13,-0.22,-0.28,0.38
40.620,-0.03,-0.01,-0.49,0.49
40.630,0.03,-0.09,-0.39,0.41
40.640,0.06,-0.05,-0.35,0.36
40.650,-0.16,-0.11,-0.52,0.55
40.660,-0.12,-0.14,-0.73,0.75
40.670,-0.04,-0.08,-0.67,0.67
40.680,0.05,-0.14,-0.60,0.62
40.690,-0.12,-0.21,-0.70,0.74
40.700,-0.17,-0.31,-0.64,0.73
40.710,-0.02,-0.14,-0.60,0.62
40.720,0.08,-0.24,-0.50,0.56
40.730,-0.01,-0.08,-0.50,0.51
40.740,-0.14,-0.22,-0.48,0.54
40.750,-0.04,-0.14,-0.58,0.60
40.760,0.07,-0.00,-0.63,0.64
40.770,0.03,-0.03,-0.70,0.70
40.780,-0.18,-0.02,-0.83,0.85
40.790,-0.10,-0.14,-0.71,0.74
40.800,-0.06,-0.08,-0.77,0.78
40.810,0.04,-0.14,-0.60,0.61
40.820,-0.12,-0.06,-0.43,0.45
40.830,-0.17,-0.39,-0.71,0.83
40.840,-0.02,-0.24,-0.76,0.80
40.850,0.06,-0.15,-0.68,0.70
40.860,-0.00,-0.03,-0.82,0.82
40.870,-0.12,-0.15,-0.81,0.83
40.880,0.01,-0.05,-0.92,0.92
40.890,0.03,-0.02,-1.07,1.07
40.900,-0.05,0.02,-1.11,1.11
40.910,-0.20,-0.01,-0.91,0.94
40.920,-0.17,-0.33,-1.01,1.07
40.930,-0.01,-0.26,-1.05,1.08
40.940,0.01,-0.21,-0.90,0.92
40.950,-0.09,-0.08,-0.94,0.95
40.960,-0.11,-0.26,-0.97,1.01
40.970,0.08,-0.11,-0.94,0.95
40.980,0.10,-0.06,-0.79,0.79
40.990,0.01,-0.01,-0.69,0.69
41.000,-0.12,-0.05,-0.49,0.50
41.010,-0.04,-0.09,-0.72,0.73
41.020,0.08,-0.07,-0.63,0.63
41.030,-0.00,0.01,-0.67,0.67
41.040,-0.17,-0.04,-0.77,0.79
41.050,-0.13,-0.20,-0.91,0.94
41.060,0.06,-0.14,-0.93,0.94
41.070,0.09,-0.11,-0.85,0.86
41.080,-0.04,-0.05,-0.68,0.68
41.090,-0.07,-0.20,-0.76,0.79
41.099,0.10,-0.07,-0.75,0.76
41.110,0.13,-0.01,-0.58,0.59
41.120,0.03,0.02,-0.70,0.70
41.130,-0.13,0.04,-0.71,0.72
41.140,-0.03,-0.07,-0.86,0.86
41.149,0.05,0.08,-0.91,0.92
41.160,0.07,0.04,-0.93,0.93
41.170,-0.15,0.03,-1.06,1.07
41.180,-0.10,-0.18,-1.22,1.24
41.189,0.04,-0.10,-1.01,1.01
41.199,0.11,-0.05,-0.81,0.81
41.210,-0.06,-0.01,-0.90,0.90
41.219,-0.08,-0.09,-0.67,0.68
41.229,0.08,-0.10,-0.78,0.79
41.239,0.19,0.02,-0.74,0.77
41.249,0.13,0.15,-0.67,0.70
41.259,-0.08,-0.01,-0.67,0.67
41.269,-0.03,-0.06,-1.04,1.04
41.279,0.03,0.02,-0.88,0.88
41.289,0.06,0.05,-0.84,0.84
41.299,-0.16,-0.03,-0.94,0.95
41.309,-0.12,-0.21,-0.73,0.77
41.319,0.04,-0.01,-0.88,0.88
41.329,0.16,-0.26,-0.57,0.64
41.339,0.04,0.14,-0.67,0.68
41.349,-0.07,-0.13,-0.55,0.57
41.359,0.06,0.05,-0.67,0.68
41.369,0.14,0.02,-0.73,0.74
41.379,0.11,0.08,-0.77,0.78
41.389,-0.11,0.09,-0.79,0.80
41.399,-0.05,-0.03,-1.12,1.12
41.409,0.04,-0.11,-1.12,1.12
41.419,0.09,-0.12,-1.12,1.13
41.429,-0.12,-0.03,-1.12,1.13
41.439,-0.11,-0.15,-1.12,1.13
41.449,0.04,-0.06,-1.08,1.08
41.459,0.14,-0.09,-0.85,0.87
41.469,0.02,-0.02,-0.90,0.90
41.479,-0.11,-0.13,-0.96,0.97
41.489,0.06,0.03,-1.02,1.02
41.499,0.14,0.02,-0.83,0.84
41.509,0.11,0.15,-0.91,0.92
41.519,-0.11,-0.02,-0.91,0.91
41.529,-0.09,0.01,-1.10,1.10
41.539,0.06,0.00,-1.01,1.01
41.549,0.08,-0.07,-0.93,0.94
41.559,-0.07,-0.13,-0.94,0.95
41.569,-0.08,-0.26,-0.87,0.91
41.579,0.05,-0.15,-0.95,0.96
41.589,0.16,-0.02,-0.89,0.91
41.599,0.06,0.05,-0.83,0.83
41.609,-0.05,-0.05,-0.73,0.73
41.619,0.10,-0.04,-0.97,0.97
41.629,0.17,0.14,-1.07,1.10
41.639,0.15,0.06,-0.82,0.83
41.649,-0.12,0.22,-1.10,1.13
41.659,-0.02,-0.12,-1.25,1.25
41.669,0.13,0.11,-1.08,1.09
41.679,0.11,-0.10,-1.07,1.08
41.689,-0.02,0.07,-0.96,0.97
41.699,-0.04,-0.20,-0.83,0.86
41.709,0.14,-0.08,-0.95,0.96
41.719,0.20,-0.02,-0.61,0.64
41.729,0.11,0.13,-0.63,0.66
41.739,-0.05,-0.01,-0.82,0.82
41.749,0.12,0.04,-0.91,0.91
41.759,0.18,0.09,-0.74,0.77
41.769,0.15,0.01,-0.96,0.97
41.778,-0.08,0.05,-1.01,1.01
41.789,-0.02,-0.12,-1.08,1.09
41.799,0.07,-0.12,-1.18,1.19
41.809,0.16,-0.17,-0.89,0.92
41.819,-0.03,-0.00,-0.79,0.79
41.829,-0.09,-0.31,-0.87,0.93
41.839,0.13,-0.12,-0.93,0.95
41.848,0.19,-0.05,-0.80,0.82
41.858,0.11,0.01,-0.77,0.78
41.868,-0.07,-0.10,-0.77,0.78
41.879,0.11,-0.13,-0.94,0.95
41.888,0.20,0.01,-0.76,0.78
41.898,0.17,-0.04,-0.75,0.77
41.908,-0.09,0.02,-0.92,0.92
41.918,-0.07,-0.25,-1.02,1.05
41.929,0.12,-0.07,-0.93,0.94
41.938,0.15,-0.19,-0.77,0.81
41.948,-0.01,-0.15,-0.76,0.77
41.958,-0.10,-0.42,-0.75,0.87
41.968,0.15,-0.28,-0.79,0.85
41.978,0.20,-0.18,-0.66,0.71
41.988,0.14,-0.03,-0.86,0.88
41.998,-0.07,-0.09,-0.95,0.96
42.008,0.05,-0.13,-1.12,1.12
